{
  "resourceType": "Bundle",
  "type": "batch",
  "entry": [
    {
      "fullUrl": "urn:uuid:2.16.840.1.113883.9.9.9.9.9",
      "resource": {
        "resourceType": "Composition",
        "id": "2.16.840.1.113883.9.9.9.9.9",
        "meta": {
          "profile": [
            "http://hl7.org/fhir/us/ecr/StructureDefinition/eicr-composition"
          ]
        },
        "identifier": {
          "use": "official",
          "type": {
            "coding": [
              {
                "code": "55751-2",
                "system": "http://loinc.org",
                "display": "Public Health Case Report"
              }
            ]
          },
          "value": "31"
        },
        "extension": [
          {
            "url": "http://hl7.org/fhir/StructureDefinition/composition-clinicaldocument-versionNumber",
            "valueString": "2"
          },
          {
            "url": "https://www.hl7.org/implement/standards/product_brief.cfm?product_id=436",
            "valueString": "2022-05-01"
          }
        ],
        "status": "final",
        "type": {
          "coding": [
            {
              "code": "55751-2",
              "system": "http://loinc.org",
              "display": "Public Health Case Report"
            }
          ]
        },
        "date": "2020-11-07T09:44:21-05:00",
        "title": "Initial Public Health Case Report",
        "confidentiality": "N",
        "section": [
          {
            "id": "5983d36e-c41d-fc02-74db-5f3b885958f3",
            "title": "Plan of Treatment",
            "text": {
              "status": "generated",
              "div": "<table xmlns=\"urn:hl7-org:v3\"><thead><tr><th>Initial Case Report Trigger <br /> Code Lab Test Order </th><th>Trigger Code</th><th>Trigger Code codeSystem</th><th>RCTC OID</th><th>RCTC Version</th><th>Ordered Date</th></tr></thead><tbody><tr ID=\"id_b52bee94-c34b-4e2c-8c15-5ad9d6def205_ref\"><td>Zika virus envelope (E) gene [Presence] in Serum <br /> by Probe and target amplification method </td><td>80825-3</td><td>LOINC</td><td>2.16.840.1.114222.4.11.7508</td><td>19/05/2020</td><td>NOV 8, 2020</td></tr></tbody></table>"
            },
            "code": {
              "coding": [
                {
                  "code": "18776-5",
                  "system": "http://loinc.org",
                  "display": "Plan of Treatment"
                }
              ]
            },
            "mode": "snapshot",
            "entry": [
              {
                "reference": "CarePlan/49200334-0c15-5a04-bf2c-b96a087ec490"
              }
            ]
          },
          {
            "id": "9b5cf887-6071-8229-9185-35e0b5ef2756",
            "title": "Encounters",
            "text": {
              "status": "generated",
              "div": "<table xmlns=\"urn:hl7-org:v3\"><thead><tr><th>Encounter</th><th>Date(s)</th><th>Location</th></tr></thead><tbody><tr ID=\"id_2a620155-9d11-439e-92b3-5d9815ff4de8_ref\"><td>Office outpatient visit 15 minutes</td><td>NOV 7, 2020</td><td><list styleCode=\"none\"><item><content styleCode=\"Italics\">Urgent Care Center</content></item></list></td></tr><tr><td colspan=\"20\"><list styleCode=\"none\"><item><table><thead><tr><th>Encounter Diagnosis Type</th></tr></thead><tbody><tr><td>Diagnosis</td></tr><tr><td colspan=\"20\"><list styleCode=\"none\"><item><table><thead><tr><th>Initial Case Report Trigger <br /> Code Problem Observation </th><th>Problem</th><th>Trigger Code</th><th>Trigger Code codeSystem</th><th>RCTC OID</th><th>RCTC Version</th><th>Date(s)</th></tr></thead><tbody><tr ID=\"id_db734647-fc99-424c-a864-7e3cda82e705_ref\"><td>Diagnosis</td><td>Pertussis (disorder)</td><td>27836007</td><td>SNOMED CT</td><td> 2.16.840.1.114222.4.11.7508</td><td>19/05/2020</td><td>NOV 7, 2020</td></tr></tbody></table><table><thead><tr><th>Encounter Diagnosis Type</th></tr></thead><tbody><tr><td>Diagnosis</td></tr><tr><td colspan=\"20\"><list styleCode=\"none\"><item><table><thead><tr><th> Problem Type</th><th> Problem</th><th> Date(s)</th></tr></thead><tbody><tr ID=\"id_db734647-fc99-424c-a864-7e3cda82e704_ref\"><td> Diagnosis</td><td> A non-trigger code diagnosis (disorder)</td><td> NOV 7, 2020</td></tr></tbody></table></item></list></td></tr></tbody></table></item></list></td></tr></tbody></table></item></list></td></tr></tbody></table>"
            },
            "code": {
              "coding": [
                {
                  "code": "46240-8",
                  "system": "http://loinc.org",
                  "display": "History of encounters"
                }
              ]
            },
            "mode": "snapshot"
          },
          {
            "id": "be325a70-c064-849a-d491-ef514077e7ed",
            "title": "History of Present Illness",
            "text": {
              "status": "generated",
              "div": "<paragraph xmlns=\"urn:hl7-org:v3\"> Persistent Cough REPORTED starting on 2020/10/05 <br /> Whooping Respiration not reported <br /> Paroxysms Of Coughing REPORTED starting on 2020/11/04 <br /> Post-tussive vomiting not reported <br /></paragraph>"
            },
            "code": {
              "coding": [
                {
                  "code": "10164-2",
                  "system": "http://loinc.org",
                  "display": "HISTORY OF PRESENT ILLNESS"
                }
              ]
            },
            "mode": "snapshot"
          },
          {
            "id": "9cb0442a-fcc4-cb62-ca2f-5563110a7f1e",
            "title": "Medications Administered",
            "text": {
              "status": "generated",
              "div": "<table xmlns=\"urn:hl7-org:v3\"><thead><tr><th>Medication</th><th>Dose</th><th>Duration</th><th>Route</th></tr></thead><tbody><tr ID=\"id_6c844c75-aa34-411c-b7bd-5e4a9f206e29_ref\"><td>Azithromycin 500 MG Oral Tablet</td><td>1 g</td><td>NOV 7, 2020 11:59</td><td>ORAL</td></tr></tbody></table>"
            },
            "code": {
              "coding": [
                {
                  "code": "29549-3",
                  "system": "http://loinc.org",
                  "display": "Medications Administered"
                }
              ]
            },
            "mode": "snapshot",
            "entry": [
              {
                "reference": "MedicationAdministration/10b5eb67-b60e-0272-b5af-026b77fa9253"
              }
            ]
          },
          {
            "id": "807a7be1-90b9-5834-08c0-731b327be1d7",
            "title": "Problems",
            "text": {
              "status": "generated",
              "div": "<table xmlns=\"urn:hl7-org:v3\"><thead><tr><th>Concern</th><th>Concern Status</th><th>Date(s)</th></tr></thead><tbody><tr ID=\"id_ec8a6ff8-ed4b-4f7e-82c3-e98e58b45de7_ref\"><td>Problem</td><td>active</td><td>NOV 7, 2020</td></tr><tr><td colspan=\"20\"><list styleCode=\"none\"><item><table><thead><tr><th>Problem Type</th><th>Problem</th><th>Date(s)</th></tr></thead><tbody><tr ID=\"id_ab1791b0-5c71-11db-b0de-0800200c9a66_ref\"><td>Symptom</td><td>Dark stools (finding)</td><td>NOV 1, 2020</td></tr><tr ID=\"id_ab1791b0-5c71-11db-b0de-0800200c9a67_ref\"><td>Complaint</td><td>Paroxysmal cough (finding)</td><td>NOV 4, 2020</td></tr></tbody></table></item></list></td></tr></tbody></table><table xmlns=\"urn:hl7-org:v3\"><thead><tr><th>Concern</th><th>Concern Status</th><th>Date(s)</th></tr></thead><tbody><tr ID=\"id_ec8a6ff8-ed4b-4f7e-82c3-e98e58b45de8_ref\"><td>Problem</td><td>active</td><td>MAY 23, 2020</td></tr></tbody></table>"
            },
            "code": {
              "coding": [
                {
                  "code": "11450-4",
                  "system": "http://loinc.org",
                  "display": "Problem List"
                }
              ]
            },
            "mode": "snapshot",
            "entry": [
              {
                "display": "Problem - Dark stools (finding)",
                "reference": "Condition/5e424dc2-c626-07e0-0cd8-0a52e23d3c3f"
              },
              {
                "display": "Problem - Paroxysmal cough (finding)",
                "reference": "Condition/4043a57f-14a8-1b67-ca5a-2f21c784a744"
              },
              {
                "display": "Problem - Dark stools (finding)",
                "reference": "Condition/5e424dc2-c626-07e0-0cd8-0a52e23d3c3f"
              },
              {
                "display": "Problem - Paroxysmal cough (finding)",
                "reference": "Condition/4043a57f-14a8-1b67-ca5a-2f21c784a744"
              }
            ]
          },
          {
            "id": "c84120c2-3c64-4e39-c6e6-fb7abb6d70f2",
            "title": "Chief Complaint",
            "text": {
              "status": "generated",
              "div": "<paragraph xmlns=\"urn:hl7-org:v3\">Chief Complaint (the patient's own description): Headache and rash</paragraph>"
            },
            "code": {
              "coding": [
                {
                  "code": "10154-3",
                  "system": "http://loinc.org",
                  "display": "Chief complaint Narrative - Reported"
                }
              ]
            },
            "mode": "snapshot"
          },
          {
            "id": "4aee0390-d9b3-34e0-4766-02cbfa5c3d64",
            "title": "Reason for Visit",
            "text": {
              "status": "generated",
              "div": "<paragraph xmlns=\"urn:hl7-org:v3\">Reason for Visit (as documented by provider): Headache, rash, and fever</paragraph>"
            },
            "code": {
              "coding": [
                {
                  "code": "29299-5",
                  "system": "http://loinc.org",
                  "display": "Reason for visit Narrative"
                }
              ]
            },
            "mode": "snapshot",
            "extension": [
              {
                "url": "http://hl7.org/fhir/cda/ccda/StructureDefinition/2.16.840.1.113883.10.20.22.2.12",
                "valueString": "Reason for Visit (as documented by provider): Headache, rash, and                            fever"
              }
            ]
          },
          {
            "id": "f1cd3d12-56aa-80b7-f5df-4b4e2e11c689",
            "title": "Results",
            "text": {
              "status": "generated",
              "div": "<table xmlns=\"urn:hl7-org:v3\"><thead><tr><th>Results Panel</th><th>Date(s)</th></tr></thead><tbody><tr ID=\"id_7d5a02b0-67a4-11db-bd13-0800200c9a66_ref\"><td>CBC W Auto Differential panel in Blood</td><td>NOV 7, 2020 to NOV 7, 2020</td></tr><tr><td colspan=\"20\"><list styleCode=\"none\"><item><table><thead><tr><th>Test</th><th>Outcome</th><th>Interpretation</th><th>Date(s)</th><th>Reference Range</th><th>Reference Range Interpretation</th><th>Reference Range Description</th></tr></thead><tbody><tr ID=\"id_7c0704bb-9c40-41b5-9c7d-26b2d59e234f_ref\"><td>Hematocrit</td><td>35.3 %</td><td>Low</td><td>NOV 7, 2020</td><td>34.9 % to 44.5 %</td><td>Low</td><td>Low</td></tr><tr ID=\"id_7c0704bb-9c40-41b5-9c7d-26b2d59e234g_ref\"><td>Lymphocytes [#/​volume] in Blood by Automated count</td><td>5.2 10*3/uL</td><td>High</td><td>NOV 7, 2020</td><td>1.0 10*3/uL to 4.8 10*3/uL</td><td>Normal</td><td /></tr></tbody></table></item></list></td></tr></tbody></table><table xmlns=\"urn:hl7-org:v3\"><thead><tr><th>Results Panel</th><th>Date(s)</th></tr></thead><tbody><tr ID=\"id_a4307cb2-b3b4-4f42-be03-1d9077376f4a_ref\"><td>Bordetella pertussis Ab <br /> [Units/volume] in Serum </td><td>NOV 7, 2020 to NOV 7, 2020</td></tr><tr><td colspan=\"20\"><list styleCode=\"none\"><item><table><thead><tr><th>Initial Case Report Trigger <br /> Code Result Observation </th><th>Trigger Code</th><th>Trigger Code codeSystem</th><th>RCTC OID</th><th>RCTC Version</th><th>Outcome</th><th>Interpretation</th><th>Date(s)</th><th>Reference Range</th><th>Reference Range Interpretation</th></tr></thead><tbody><tr ID=\"id_bf9c0a26-4524-4395-b3ce-100450b9c9ad_ref\"><td>Bordetella pertussis Ab <br /> [Units/volume] in Serum </td><td>11585-7</td><td>LOINC</td><td>2.16.840.1.114222.4.11.7508</td><td>19/05/2020</td><td>100 [iU]/mL</td><td>High</td><td>NOV 7, 2020</td><td> to 45 [iU]/mL</td><td>Normal</td></tr></tbody></table></item></list></td></tr></tbody></table><table xmlns=\"urn:hl7-org:v3\"><thead><tr><th>Results Panel</th><th>Date(s)</th></tr></thead><tbody><tr ID=\"id_a4307cb2-b3b4-4f42-be03-1d9077376f4b_ref\"><td>Bordetella pertussis [Presence] <br /> in Throat by Organism specific culture </td><td>NOV 7, 2020 to NOV 7, 2020</td></tr><tr><td colspan=\"20\"><list styleCode=\"none\"><item><table><thead><tr><th>Initial Case Report Trigger Code Result Observation </th><th>Trigger Code</th><th>Trigger Code codeSystem</th><th>RCTC OID</th><th>RCTC Version</th><th>Outcome</th><th>Trigger Code</th><th>Trigger Code codeSystem</th><th>RCTC OID</th><th>RCTC Version</th><th>Interpretation</th><th>Date(s)</th></tr></thead><tbody><tr ID=\"id_bf9c0a26-4524-4395-b3ce-100450b9c9ac_ref\"><td>Bordetella pertussis [Presence] <br /> in Throat by Organism specific culture </td><td>548-8</td><td>LOINC</td><td>2.16.840.1.114222.4.11.7508</td><td>19/05/2020</td><td>Bordetella pertussis (organism)</td><td>5247005</td><td>SNOMED CT</td><td>2.16.840.1.114222.4.11.7508</td><td>19/05/2020</td><td>Abnormal</td><td>NOV 7, 2020</td></tr></tbody></table></item></list></td></tr></tbody></table>"
            },
            "code": {
              "coding": [
                {
                  "code": "30954-2",
                  "system": "http://loinc.org",
                  "display": "Relevant diagnostic tests and/or laboratory data"
                }
              ]
            },
            "mode": "snapshot",
            "entry": [
              {
                "reference": "Observation/e333acb8-01e7-e1ea-e9bc-b87c9e8bfd7c"
              },
              {
                "reference": "Observation/4d749a1f-c826-e0c1-c5a8-4cdf22d35bd8"
              },
              {
                "reference": "Observation/a4f839ae-06f7-110f-2b93-6d196ffdbd98"
              },
              {
                "reference": "Observation/9066312e-2cd6-fc9d-223e-090aa5e566d8"
              },
              {
                "reference": "Observation/d9915885-4dd6-2c75-851c-419cf0438d37",
                "display": "Bordetella pertussis [Presence] in Throat by Organism specific culture"
              }
            ]
          },
          {
            "id": "efaeb74f-db14-fb34-66e4-5fde84682c12",
            "title": "Procedures",
            "text": {
              "status": "generated",
              "div": "<table border=\"1\" width=\"100%\" xmlns=\"urn:hl7-org:v3\"><thead><tr><th>Procedure</th><th>Date</th></tr></thead><tbody><tr><td>Colonic polypectomy</td><td>November 15, 2020</td></tr></tbody></table>"
            },
            "code": {
              "coding": [
                {
                  "code": "47519-4",
                  "system": "http://loinc.org",
                  "display": "History of Procedures"
                }
              ]
            },
            "mode": "snapshot",
            "entry": [
              {
                "reference": "Procedure/d409ccf8-ab6a-5edf-f64e-ad74e31b74ba"
              },
              {
                "reference": "Observation/44e6df0f-4e41-63ee-2bda-625369930b7c"
              },
              {
                "reference": "Procedure/a09444be-e022-d5ec-3014-e337fd6dc2ef"
              },
              {
                "reference": "Procedure/3ec04e84-6296-9381-d036-ceb7a9133b59"
              },
              {
                "reference": "Observation/ecf330de-e85f-0b34-5fdd-6dccdae41d6d"
              }
            ]
          },
          {
            "id": "56fbb469-df1b-4b55-c913-12bb7520c7e4",
            "title": "Immunizations",
            "text": {
              "status": "generated",
              "div": "<table xmlns=\"urn:hl7-org:v3\"><thead><tr><th>Immunization</th><th>Immunization Date</th></tr></thead><tbody><tr><td>diphtheria, tetanus toxoids and acellular <br /> pertussis vaccine, 5 pertussis antigens </td><td>NOV 11, 2020</td></tr></tbody></table><table xmlns=\"urn:hl7-org:v3\"><thead><tr><th>Initial Case Report Trigger Code <br /> Immunization Medication Activity </th><th>Immunization Date</th><th>Trigger <br /> Code </th><th>Trigger Code <br /> codeSystem </th><th>RCTC OID</th><th>RCTC <br /> Version </th></tr></thead><tbody><tr><td>influenza virus vaccine, unspecified formulation</td><td>NOV 11, 2020</td><td>88</td><td>CVX</td><td>2.16.840.1.114222.4.11.7508</td><td>19/05/2020</td></tr></tbody></table><table xmlns=\"urn:hl7-org:v3\"><thead><tr><th>Vaccinne Credential Patient Assertion</th><th>Assertion Date</th></tr></thead><tbody><tr><td>Yes</td><td>NOV 11, 2020</td></tr></tbody></table>"
            },
            "code": {
              "coding": [
                {
                  "code": "11369-6",
                  "system": "http://loinc.org",
                  "display": "Hx of Immunization"
                }
              ]
            },
            "mode": "snapshot"
          },
          {
            "id": "04e503c1-9ea7-e30b-b33f-de3df54e471d",
            "title": "Social History",
            "text": {
              "status": "generated",
              "div": "<table xmlns=\"urn:hl7-org:v3\"><thead><tr><th>Birth Sex</th><th>Value</th><th>Date</th></tr></thead><tbody><tr><td>Sex Assigned At Birth</td><td>Female</td><td>NOV 24, 1974</td></tr></tbody></table><table xmlns=\"urn:hl7-org:v3\"><thead><tr><th>Gender identity</th><th>Date</th></tr></thead><tbody><tr><td>Female-to-male transsexual (finding)</td><td>JAN 1, 2020</td></tr></tbody></table><table xmlns=\"urn:hl7-org:v3\"><thead><tr><th>Characteristics of Home Environment</th><th>Date</th></tr></thead><tbody><tr><td>Homeless</td><td>NOV 9, 2020</td></tr></tbody></table><table xmlns=\"urn:hl7-org:v3\"><thead><tr><th>Exposure/Contact Information</th><th>Date</th><th>Location</th><th>Address</th></tr></thead><tbody><tr><td>Mass Gathering: Football game</td><td>November 11, 2020</td><td>City Football Stadium</td><td>99 Football Stadium Road, My City, AZ, 8562</td></tr></tbody></table><table xmlns=\"urn:hl7-org:v3\"><thead><tr><th>Current Occupation</th><th>Current Industry</th><th>Current Job Title</th><th>Current Employer Name</th><th>Current Employer Address</th><th>Current Employer Telcom</th><th>Occupational Exposure</th></tr></thead><tbody><tr><td>Nursing, psychiatric, and home health aides</td><td>Accounting, tax preparation, bookkeeping, and payroll services</td><td>Nurse</td><td>University Hospital</td><td>Peachtree Street, Atlanta, Georgia</td><td>555-1212</td><td>Nursing care facilities</td><td>Asbestos</td></tr></tbody></table><table xmlns=\"urn:hl7-org:v3\"><thead><tr><th>Usual Occupation</th><th>Usual Industry</th></tr></thead><tbody><tr><td>Nursing, psychiatric, and home health aides</td><td>Nursing care facilities</td></tr></tbody></table><table xmlns=\"urn:hl7-org:v3\"><thead><tr><th>Travel History: Date(s)</th><th>Notes</th><th>Location</th></tr></thead><tbody><tr><td>1999 to 2007</td><td>Spent 8 years in the UK during the BSE outbreak</td><td /></tr><tr><td>In the 3 weeks before NOV 9, 2020</td><td /><td><list styleCode=\"none\"><item>Brazil</item></list></td></tr><tr><td>APR 25, 2020 to APR 30, 2020</td><td /><td><list styleCode=\"none\"><item>Nadi, FJ</item></list></td></tr><tr><td>MAY 6, 2020 to MAY 15, 2020</td><td /><td><list styleCode=\"none\"><item>Montreal, QC, CA</item></list></td></tr><tr><td>JUL 13, 2020 to JUL 15, 2020</td><td /><td><list styleCode=\"none\"><item>Sydney, NSW, AU</item></list></td></tr><tr><td>OCT 22, 2020 to OCT 30, 2020</td><td /><td><list styleCode=\"none\"><item>1170 N Rancho Robles Rd Oracle, AZ8562, US</item></list></td></tr></tbody></table><table xmlns=\"urn:hl7-org:v3\"><thead><tr><th>Country of Residence</th></tr></thead><tbody><tr><td>United Kingdom of Great Britain and Northern Ireland</td></tr></tbody></table><table xmlns=\"urn:hl7-org:v3\"><thead><tr><th>Country of Nationality</th></tr></thead><tbody><tr><td>Australia</td></tr></tbody></table>"
            },
            "code": {
              "coding": [
                {
                  "code": "29762-2",
                  "system": "http://loinc.org",
                  "display": "Social History"
                }
              ]
            },
            "mode": "snapshot",
            "entry": [
              {
                "reference": "Observation/f5279f37-1a07-98a4-d514-5b920a102829"
              },
              {
                "reference": "Observation/580d8a11-769f-74d0-36f1-affd02d5975c"
              },
              {
                "reference": "Observation/a4052c7a-bd45-b9f6-46d5-2d7b646dde0a"
              },
              {
                "reference": "Observation/a1d4182f-0097-66b6-5bd2-64325b2cc715"
              },
              {
                "reference": "Observation/88758e59-8554-85af-d347-90e6f5cb2c55"
              },
              {
                "reference": "Observation/97b51123-4fab-9332-9e7e-b3afc57b45e1"
              },
              {
                "reference": "Observation/b8678cc4-fcdf-54c6-3bc8-65aa54dcdb1f"
              },
              {
                "reference": "Observation/4097baf8-254f-2c1f-a130-8668d962e4bb"
              },
              {
                "reference": "Observation/547dbdf1-aa96-f6aa-2dfb-b0caaff05586"
              },
              {
                "reference": "Observation/c241ed7b-dc3d-7055-5d3e-a307f8494b07"
              },
              {
                "reference": "Observation/962570d9-01a7-db34-f8c9-57168e44510d"
              },
              {
                "reference": "Observation/7bdd3e8f-3ec3-05e6-907b-980211b39b3a"
              },
              {
                "reference": "Observation/5653f67a-bd5f-d5eb-a36e-0a2b4626e1a6"
              },
              {
                "reference": "Observation/77d57bd0-c41e-78f4-cbbb-218b4a2c412a"
              },
              {
                "reference": "Observation/aa4503c3-c475-e3dd-96fa-814291526157"
              }
            ]
          },
          {
            "id": "d4b0364a-4fa9-902d-04ea-04c6ccd4a9d1",
            "title": "Pregnancy Section",
            "text": {
              "status": "generated",
              "div": "<table xmlns=\"urn:hl7-org:v3\"><thead><tr><th>Pregnancy Status</th><th>Date(s) over which status holds <br /> (if no high date, status was <br /> current at time of recording) </th><th>Determination Method</th><th>Determination Date</th><th>Recorded Date</th></tr></thead><tbody><tr><td>Pregnant</td><td>AUG 26, 2017</td><td>Diagnostic ultrasonography</td><td>OCT 1, 2017</td><td>OCT 1, 2017 10:35</td></tr><tr><td colspan=\"20\"><list styleCode=\"none\"><item><table><thead><tr><th>Estimated Date of Delivery</th><th>EDD</th><th>EDD Determination Date</th></tr></thead><tbody><tr><td>Delivery date estimated from ovulation date</td><td>MAY 22, 2017</td><td>OCT 1, 2017 10:15</td></tr></tbody></table><table><thead><tr><th>Estimated Gestational Age of Pregnancy</th><th>Days</th><th>Determination Date</th></tr></thead><tbody><tr><td>Gestational age Estimated from selected delivery date</td><td>143 d</td><td>OCT 1, 2017 10:15</td></tr><tr><td colspan=\"20\"><list styleCode=\"none\"><item><table><thead><tr><th>Reference to selected delivery date</th></tr></thead><tbody><tr><td><linkHtml href=\"#id_f3dfc576-2329-4f71-af3f-d500cab1146b_ref\">Link to referenced entry</linkHtml></td></tr></tbody></table></item></list></td></tr></tbody></table><table><thead><tr><th>Pregnancy Outcome</th><th>Birth Order</th><th>Time</th><th>Method of Delivery</th></tr></thead><tbody><tr><td>Stillbirth (finding)</td><td>1</td><td>JAN 5, 2020 08:50</td><td>Breech delivery (procedure)</td></tr><tr><td>Term birth of newborn (finding)</td><td>2</td><td>JAN 5, 2020 10:05</td><td>Breech delivery (procedure)</td></tr></tbody></table></item></list></td></tr></tbody></table><table xmlns=\"urn:hl7-org:v3\"><thead><tr><th>Last menstrual period start date</th><th>Observation Date</th></tr></thead><tbody><tr><td>AUG 1, 2017</td><td>JAN 5, 2020 10:15</td></tr></tbody></table><table xmlns=\"urn:hl7-org:v3\"><thead><tr><th>Postpartum Status</th><th>Observation date</th></tr></thead><tbody><tr><td>Mid postpartum state (finding)</td><td>JAN 5, 2020 10:15</td></tr></tbody></table>"
            },
            "code": {
              "coding": [
                {
                  "code": "90767-5",
                  "system": "http://loinc.org",
                  "display": "Pregnancy summary Document"
                }
              ]
            },
            "mode": "snapshot",
            "entry": [
              {
                "reference": "Observation/2a400387-e218-396e-2d44-32ce20eaa1f7"
              },
              {
                "reference": "Observation/2a400387-e218-396e-2d44-32ce20eaa1f7"
              },
              {
                "reference": "Observation/1d93a81a-783d-c53d-54c4-24e9f036600d"
              },
              {
                "reference": "Observation/94fe2533-e208-a1b4-c510-c9ece8a2d490"
              }
            ]
          },
          {
            "id": "ab1d85cb-f5b1-ff82-c029-9bea163cb86f",
            "title": "Vital Signs (Last Filed)",
            "text": {
              "status": "generated",
              "div": "<table xmlns=\"urn:hl7-org:v3\"><thead><tr><th>Date</th><th>Blood Pressure</th><th>Pulse</th><th>Temperature</th><th>Respiratory Rate</th><th>Height</th><th>Weight</th><th>BMI</th><th>SpO2</th></tr></thead><tbody><tr><td>05/20/2014 7:36pm</td><!-- You can consolidate Systolic and Diastolic in human view if desired but should retain separate references--><td><content ID=\"SystolicBP_2\">120</content>/ <content ID=\"DiastolicBP_2\">80</content>mm[Hg] </td><td ID=\"Pulse_2\">80 /min</td><td ID=\"Temp_2\">99.0 F</td><td ID=\"RespRate_2\">18 /min</td><td ID=\"Height_2\">5'7 (67 inches)</td><td ID=\"Weight_2\">239.9 lbs</td><td ID=\"BMI_2\">37.58 kg/m2</td><td ID=\"SPO2_2\">98%</td></tr></tbody></table>"
            },
            "code": {
              "coding": [
                {
                  "code": "8716-3",
                  "system": "http://loinc.org",
                  "display": "Vital Signs"
                }
              ]
            },
            "mode": "snapshot"
          },
          {
            "id": "470300a2-3de6-b46b-8e97-6179de07cfe0",
            "title": "Emergency Outbreak Information Section",
            "text": {
              "status": "generated",
              "div": "<table xmlns=\"urn:hl7-org:v3\"><thead><tr><th>Information Type</th><th>Information Date</th><th>Result</th></tr></thead><tbody><tr><td>Employee desk distance from mail sorter</td><td>1 November 2020</td><td>2 meters</td></tr></tbody></table>"
            },
            "code": {
              "coding": [
                {
                  "code": "83910-0",
                  "system": "http://loinc.org",
                  "display": "Public health Note"
                }
              ]
            },
            "mode": "snapshot",
            "entry": [
              {
                "reference": "Observation/26d05bcc-1b0f-fc8a-a85e-4c6c6512478f"
              }
            ]
          },
          {
            "id": "da0ea5c7-14e0-2a20-10bf-a7f460548b37",
            "title": "Reportability Response Information Section",
            "text": {
              "status": "generated",
              "div": "<table xmlns=\"urn:hl7-org:v3\"><thead><tr><th>TODO</th></tr></thead><tbody><tr><td>TODO</td></tr></tbody></table>"
            },
            "code": {
              "coding": [
                {
                  "code": "88085-6",
                  "system": "http://loinc.org",
                  "display": "Reportability response report Document Public health"
                }
              ]
            },
            "mode": "snapshot"
          },
          {
            "id": "73edfe11-ed5f-eea4-52b7-d79e77d6e1ad",
            "title": "Reportability Response Information Section",
            "text": {
              "status": "generated",
              "div": "<div xmlns=\"http://www.w3.org/1999/xhtml\">Reportability Response Information Section</div>"
            },
            "extension": [
              {
                "url": "http://hl7.org/fhir/us/ecr/StructureDefinition/eicr-initiation-type-extension",
                "valueCodeableConcept": {
                  "text": "official",
                  "coding": [
                    {
                      "code": "88085-6",
                      "system": "http://loinc.org",
                      "display": "Reportability response report Document Public health"
                    }
                  ]
                }
              },
              {
                "url": "http://hl7.org/fhir/us/ecr/StructureDefinition/rr-eicr-processing-status-extension",
                "extension": [
                  {
                    "url": "eICRProcessingStatus",
                    "valueReference": {
                      "reference": "Observation/17d188a8-6578-a7b1-9d22-2c28435682ed",
                      "display": "eICR processed"
                    }
                  }
                ]
              }
            ],
            "code": {
              "coding": [
                {
                  "code": "88085-6",
                  "system": "http://loinc.org",
                  "display": "Reportability response report Document Public health"
                }
              ]
            },
            "entry": [
              {
                "display": "Relevant Reportable Condition Observation - Disease caused by severe acute respiratory syndrome coronavirus 2 (disorder)",
                "reference": "Observation/a66d09ae-2b5a-4170-af3f-4ca4df7a02a6"
              },
              {
                "display": "Relevant Reportable Condition Observation - Plague (disorder)",
                "reference": "Observation/10bd27fb-e882-4acb-8efb-ed2051b86691"
              }
            ]
          }
        ],
        "subject": {
          "reference": "Patient/f238f1ae-2f55-cd21-5c90-5e68a10af8ce"
        },
        "relatesTo": [
          {
            "code": "replaces",
            "targetReference": {
              "reference": "Composition/2.16.840.1.113883.9.9.9.9.9"
            },
            "extension": [
              {
                "url": "http://hl7.org/fhir/StructureDefinition/composition-clinicaldocument-versionNumber",
                "valueString": "1"
              }
            ]
          }
        ],
        "encounter": {
          "reference": "Encounter/76318a56-b9e2-db52-1123-ff869795db80"
        },
        "custodian": {
          "reference": "Organization/6f0890ee-d9a6-c51d-ac83-79cfda623a82"
        },
        "author": [
          {
            "reference": "Device/d0ae0527-f36b-de1d-e26b-1560599be6d5"
          }
        ]
      },
      "request": {
        "method": "PUT",
        "url": "Composition/2.16.840.1.113883.9.9.9.9.9"
      }
    },
    {
      "fullUrl": "urn:uuid:76318a56-b9e2-db52-1123-ff869795db80",
      "resource": {
        "resourceType": "Encounter",
        "id": "76318a56-b9e2-db52-1123-ff869795db80",
        "status": "unknown",
        "class": {
          "code": "AMB",
          "system": "urn:oid:2.16.840.1.113883.5.4",
          "display": "Ambulatory"
        },
        "identifier": [
          {
            "system": "urn:oid:2.16.840.1.113883.19",
            "value": "9937012"
          }
        ],
        "period": {
          "start": "2020-11-07T08:44:21-05:00",
          "end": "2020-11-08T11:21:03-05:00"
        },
        "subject": {
          "reference": "Patient/f238f1ae-2f55-cd21-5c90-5e68a10af8ce"
        },
        "location": [
          {
            "id": "2.16.840.1.113883.4.6",
            "location": {
              "reference": "Location/ed3a7a6d-0b21-3b61-28d1-4fe4e97540ca",
              "display": "Good Health Hospital"
            },
            "extension": [
              {
                "url": "http://build.fhir.org/ig/HL7/case-reporting/StructureDefinition-us-ph-location-definitions.html#Location.type",
                "valueCodeableConcept": {
                  "coding": [
                    {
                      "code": "OF",
                      "system": "urn:oid:2.16.840.1.113883.5.111",
                      "display": "Outpatient facility"
                    }
                  ]
                }
              }
            ]
          }
        ],
        "serviceProvider": {
          "reference": "Organization/09e89134-7d55-51b4-2183-bcb51b361a36"
        },
        "participant": [
          {
            "type": [
              {
                "coding": [
                  {
                    "system": "http://terminology.hl7.org/CodeSystem/v3-ParticipationType",
                    "code": "ATND"
                  }
                ]
              }
            ],
            "individual": {
              "reference": "PractitionerRole/b248d58a-39b6-1f46-a57b-10902242eced"
            }
          }
        ]
      },
      "request": {
        "method": "PUT",
        "url": "Encounter/76318a56-b9e2-db52-1123-ff869795db80"
      }
    },
    {
      "fullUrl": "urn:uuid:ed3a7a6d-0b21-3b61-28d1-4fe4e97540ca",
      "resource": {
        "resourceType": "Location",
        "id": "ed3a7a6d-0b21-3b61-28d1-4fe4e97540ca",
        "identifier": [
          {
            "system": "http://hl7.org/fhir/sid/us-npi",
            "value": "77777777777"
          }
        ],
        "name": "Good Health Hospital",
        "address": {
          "line": [
            "1000 Hospital Lane"
          ],
          "city": "Ann Arbor",
          "state": "MI",
          "country": "US",
          "postalCode": "99999"
        },
        "telecom": [
          {
            "system": "phone",
            "value": "1+(555)-555-1212",
            "use": "work"
          },
          {
            "system": "fax",
            "value": "1+(555)-555-3333",
            "use": "work"
          }
        ],
        "type": [
          {
            "coding": [
              {
                "code": "OF",
                "system": "urn:oid:2.16.840.1.113883.5.111",
                "display": "Outpatient facility"
              }
            ]
          }
        ]
      },
      "request": {
        "method": "PUT",
        "url": "Location/ed3a7a6d-0b21-3b61-28d1-4fe4e97540ca"
      }
    },
    {
      "fullUrl": "urn:uuid:09e89134-7d55-51b4-2183-bcb51b361a36",
      "resource": {
        "resourceType": "Organization",
        "id": "09e89134-7d55-51b4-2183-bcb51b361a36",
        "name": "Good Health Hospital",
        "address": [
          {
            "line": [
              "1000 Hospital Lane"
            ],
            "city": "Ann Arbor",
            "state": "MI",
            "country": "US",
            "postalCode": "99999"
          }
        ],
        "telecom": [
          {
            "system": "phone",
            "value": "1+(555)-555-1212",
            "use": "work"
          },
          {
            "system": "fax",
            "value": "1+(555)-555-3333",
            "use": "work"
          }
        ]
      },
      "request": {
        "method": "PUT",
        "url": "Organization/09e89134-7d55-51b4-2183-bcb51b361a36"
      }
    },
    {
      "fullUrl": "urn:uuid:b1788a7c-7165-936d-d3de-3a1713e2d54d",
      "resource": {
        "resourceType": "Practitioner",
        "id": "b1788a7c-7165-936d-d3de-3a1713e2d54d",
        "meta": {
          "profile": [
            "http://hl7.org/fhir/us/core/StructureDefinition/us-core-practitioner"
          ]
        },
        "extension": [
          {
            "url": "http://hl7.org/fhir/StructureDefinition/_datatype",
            "valueString": "Responsible Party"
          }
        ],
        "identifier": [
          {
            "system": "http://hl7.org/fhir/sid/us-npi",
            "value": "6666666666666"
          }
        ],
        "name": [
          {
            "family": "Seven",
            "given": [
              "Henry"
            ],
            "suffix": [
              "M.D."
            ]
          }
        ],
        "address": [
          {
            "line": [
              "1002 Healthcare Drive"
            ],
            "city": "Ann Arbor",
            "state": "MI",
            "country": "US",
            "postalCode": "99999"
          }
        ],
        "telecom": [
          {
            "system": "phone",
            "value": "+1(555)555-1003",
            "use": "work"
          },
          {
            "system": "fax",
            "value": "+1(555)555-1234",
            "use": "work"
          },
          {
            "system": "email",
            "value": "mail@provider_domain.com",
            "use": "work"
          }
        ]
      },
      "request": {
        "method": "PUT",
        "url": "Practitioner/b1788a7c-7165-936d-d3de-3a1713e2d54d"
      }
    },
    {
      "resource": {
        "resourceType": "PractitionerRole",
        "id": "b248d58a-39b6-1f46-a57b-10902242eced",
        "practitioner": {
          "reference": "Practitioner/b1788a7c-7165-936d-d3de-3a1713e2d54d"
        },
        "organization": {
          "reference": "Organization/8305a99c-dd44-f037-9a4a-b22ef7ae7d5e"
        }
      }
    },
    {
      "fullUrl": "urn:uuid:8305a99c-dd44-f037-9a4a-b22ef7ae7d5e",
      "resource": {
        "resourceType": "Organization",
        "id": "8305a99c-dd44-f037-9a4a-b22ef7ae7d5e",
        "name": "Community Health and Hospitals",
        "address": [
          {
            "line": [
              "1002 Healthcare Drive"
            ],
            "city": "Ann Arbor",
            "state": "MI",
            "country": "US",
            "postalCode": "99999"
          }
        ]
      },
      "request": {
        "method": "PUT",
        "url": "Organization/8305a99c-dd44-f037-9a4a-b22ef7ae7d5e"
      }
    },
    {
      "fullUrl": "urn:uuid:c56015b1-ec87-3ccf-4f38-5a16943cf505",
      "resource": {
        "resourceType": "Organization",
        "id": "c56015b1-ec87-3ccf-4f38-5a16943cf505",
        "meta": {
          "profile": [
            "http://hl7.org/fhir/us/ecr/StructureDefinition/rr-routing-entity-organization"
          ]
        },
        "active": true,
        "type": [
          {
            "coding": [
              {
                "system": "urn:oid:2.16.840.1.114222.4.5.232",
                "code": "RR7",
                "display": "Routing Entity"
              }
            ]
          }
        ],
        "name": "Los Angeles County Department of Public Health"
      },
      "request": {
        "method": "PUT",
        "url": "Organization/c56015b1-ec87-3ccf-4f38-5a16943cf505"
      }
    },
    {
      "fullUrl": "urn:uuid:a66d09ae-2b5a-4170-af3f-4ca4df7a02a6",
      "resource": {
        "resourceType": "Observation",
        "id": "a66d09ae-2b5a-4170-af3f-4ca4df7a02a6",
        "meta": {
          "profile": [
            "http://hl7.org/fhir/us/ecr/StructureDefinition/rr-reportability-information-observation"
          ]
        },
        "identifier": [
          {
            "system": "urn:ietf:rfc:3986",
            "value": "urn:uuid:a66d09ae-2b5a-4170-af3f-4ca4df7a02a6"
          }
        ],
        "status": "final",
        "code": {
          "coding": [
            {
              "code": "64572001",
              "display": "Condition",
              "system": "http://snomed.info/sct"
            },
            {
              "code": "75323-6",
              "display": "Condition",
              "system": "http://loinc.org"
            }
          ]
        },
        "valueCodeableConcept": {
          "coding": [
            {
              "code": "840539006",
              "system": "http://snomed.info/sct",
              "display": "Disease caused by severe acute respiratory syndrome coronavirus 2 (disorder)"
            }
          ]
        },
        "extension": [
          {
            "url": "http://hl7.org/fhir/us/ecr/StructureDefinition/us-ph-determination-of-reportability-rule-extension",
            "valueString": "Detection of SARS-CoV-2                                                    antibody in a clinical specimen by any method"
          }
        ],
        "performer": [
          {
            "reference": "Organization/c56015b1-ec87-3ccf-4f38-5a16943cf505",
            "display": "Los Angeles County Department of Public Health"
          }
        ]
      },
      "request": {
        "method": "PUT",
        "url": "Observation/a66d09ae-2b5a-4170-af3f-4ca4df7a02a6"
      }
    },
    {
      "fullUrl": "urn:uuid:10bd27fb-e882-4acb-8efb-ed2051b86691",
      "resource": {
        "resourceType": "Observation",
        "id": "10bd27fb-e882-4acb-8efb-ed2051b86691",
        "meta": {
          "profile": [
            "http://hl7.org/fhir/us/ecr/StructureDefinition/rr-reportability-information-observation"
          ]
        },
        "identifier": [
          {
            "system": "urn:ietf:rfc:3986",
            "value": "urn:uuid:10bd27fb-e882-4acb-8efb-ed2051b86691"
          }
        ],
        "status": "final",
        "code": {
          "coding": [
            {
              "code": "64572001",
              "display": "Condition",
              "system": "http://snomed.info/sct"
            },
            {
              "code": "75323-6",
              "display": "Condition",
              "system": "http://loinc.org"
            }
          ]
        },
        "valueCodeableConcept": {
          "coding": [
            {
              "code": "58750007",
              "system": "http://snomed.info/sct",
              "display": "Plague (disorder)"
            }
          ]
        },
        "extension": [
          {
            "url": "http://hl7.org/fhir/us/ecr/StructureDefinition/us-ph-determination-of-reportability-rule-extension",
            "valueString": "Plague (as a diagnosis or                                                    active problem)"
          }
        ],
        "performer": [
          {
            "reference": "Organization/c56015b1-ec87-3ccf-4f38-5a16943cf505",
            "display": "Los Angeles County Department of Public Health"
          }
        ]
      },
      "request": {
        "method": "PUT",
        "url": "Observation/10bd27fb-e882-4acb-8efb-ed2051b86691"
      }
    },
    {
      "fullUrl": "urn:uuid:17d188a8-6578-a7b1-9d22-2c28435682ed",
      "resource": {
        "resourceType": "Observation",
        "id": "17d188a8-6578-a7b1-9d22-2c28435682ed",
        "meta": {
          "profile": [
            "http://hl7.org/fhir/us/ecr/StructureDefinition/rr-eicr-processing-status-observation"
          ]
        },
        "identifier": [
          {
            "system": "urn:ietf:rfc:3986",
            "value": "urn:uuid:39d966b9-8a3a-4024-93d8-138e97d5898a"
          }
        ],
        "status": "final",
        "code": {
          "coding": [
            {
              "code": "RRVS19",
              "system": "urn:oid:2.16.840.1.114222.4.5.274",
              "display": "eICR processed"
            }
          ]
        }
      },
      "request": {
        "method": "PUT",
        "url": "Observation/17d188a8-6578-a7b1-9d22-2c28435682ed"
      }
    },
    {
      "fullUrl": "urn:uuid:6f0890ee-d9a6-c51d-ac83-79cfda623a82",
      "resource": {
        "resourceType": "Organization",
        "id": "6f0890ee-d9a6-c51d-ac83-79cfda623a82",
        "identifier": [
          {
            "system": "http://hl7.org/fhir/sid/us-npi",
            "value": "88888888"
          }
        ],
        "name": "Good Health Hospital",
        "address": [
          {
            "line": [
              "1000 Hospital Lane"
            ],
            "city": "Ann Arbor",
            "state": "MI",
            "country": "US",
            "postalCode": "99999"
          }
        ],
        "telecom": [
          {
            "system": "phone",
            "value": "+1(555)555-1212",
            "use": "work"
          }
        ]
      },
      "request": {
        "method": "PUT",
        "url": "Organization/6f0890ee-d9a6-c51d-ac83-79cfda623a82"
      }
    },
    {
      "fullUrl": "urn:uuid:d0ae0527-f36b-de1d-e26b-1560599be6d5",
      "resource": {
        "resourceType": "Device",
        "id": "d0ae0527-f36b-de1d-e26b-1560599be6d5",
        "identifier": [
          {
            "system": "urn:ietf:rfc:3986",
            "value": "urn:uuid:2.16.840.1.113883.3.72.5.20"
          }
        ],
        "property": [
          {
            "type": {
              "coding": [
                {
                  "system": "http://hl7.org/fhir/device-category",
                  "code": "software",
                  "display": "software"
                }
              ]
            }
          }
        ]
      },
      "request": {
        "method": "PUT",
        "url": "Device/d0ae0527-f36b-de1d-e26b-1560599be6d5"
      }
    },
    {
      "fullUrl": "urn:uuid:f238f1ae-2f55-cd21-5c90-5e68a10af8ce",
      "resource": {
        "resourceType": "Patient",
        "id": "f238f1ae-2f55-cd21-5c90-5e68a10af8ce",
        "meta": {
          "profile": [
            "http://hl7.org/fhir/us/core/StructureDefinition/us-core-patient"
          ]
        },
        "identifier": [
          {
            "system": "urn:oid:2.16.840.1.113883.19.5",
            "value": "123453"
          },
          {
            "system": "http://hl7.org/fhir/sid/us-ssn",
            "value": "444-22-2222"
          }
        ],
        "name": [
          {
            "use": "official",
            "family": "Everywoman",
            "given": [
              "Eve",
              "H"
            ]
          },
          {
            "use": "usual",
            "family": "Everywoman",
            "given": [
              "Ruth",
              "L"
            ]
          }
        ],
        "birthDate": "1974-11-24",
        "deceasedBoolean": false,
        "gender": "female",
        "extension": [
          {
            "url": "http://hl7.org/fhir/us/core/StructureDefinition/us-core-race",
            "extension": [
              {
                "url": "ombCategory",
                "valueCoding": {
                  "code": "2106-3",
                  "display": "White"
                }
              },
              {
                "url": "text",
                "valueString": "White"
              }
            ]
          },
          {
            "url": "http://hl7.org/fhir/us/core/StructureDefinition/us-core-ethnicity",
            "extension": [
              {
                "url": "ombCategory",
                "valueCoding": {
                  "code": "2186-5",
                  "display": "Not Hispanic or Latino"
                }
              },
              {
                "url": "text",
                "valueString": "Not Hispanic or Latino"
              }
            ]
          },
          {
            "url": "http://hl7.org/fhir/us/core/StructureDefinition/us-core-birthsex",
            "extension": [
              {
                "url": "value",
                "valueCodeableConcept": {
                  "coding": [
                    {
                      "code": "F",
                      "system": "urn:oid:2.16.840.1.113883.5.1",
                      "display": "Female"
                    }
                  ]
                }
              }
            ]
          },
          {
            "url": "http://hl7.org/fhir/us/ecr/StructureDefinition/us-ph-genderidentity-extension",
            "extension": [
              {
                "url": "value",
                "valueCodeableConcept": {
                  "coding": [
                    {
                      "code": "407377005",
                      "system": "http://snomed.info/sct",
                      "display": "Female-to-male transsexual (finding)"
                    }
                  ]
                }
              }
            ]
          },
          {
            "url": "http://hl7.org/fhir/us/ecr/StructureDefinition/us-ph-tribal-affiliation-extension",
            "extension": [
              {
                "url": "TribeName",
                "valueCoding": {
                  "code": "91",
                  "system": "http://terminology.hl7.org/CodeSystem/v3-TribalEntityUS",
                  "display": "Fort Mojave Indian Tribe of Arizona, California"
                }
              },
              {
                "url": "EnrolledTribeMember",
                "valueBoolean": true
              }
            ]
          }
        ],
        "address": [
          {
            "use": "home",
            "line": [
              "2222 Home Street"
            ],
            "city": "Ann Arbor",
            "state": "MI",
            "country": "US",
            "postalCode": "99999",
            "district": "26001",
            "period": {
              "start": "2000-07-20T08:45:00"
            }
          }
        ],
        "telecom": [
          {
            "system": "phone",
            "value": "+1-555-555-2003",
            "use": "home"
          },
          {
            "system": "phone",
            "value": "+1-555-555-2004",
            "use": "work"
          }
        ],
        "communication": [
          {
            "language": {
              "coding": [
                {
                  "system": "urn:ietf:bcp:47",
                  "code": "en",
                  "display": "English"
                }
              ]
            },
            "preferred": true,
            "extension": [
              {
                "url": "http://hl7.org/fhir/StructureDefinition/patient-proficiency",
                "extension": [
                  {
                    "url": "type",
                    "valueCoding": {
                      "system": "http://terminology.hl7.org/CodeSystem/v3-LanguageAbilityMode",
                      "code": "ESP",
                      "display": "Expressed spoken"
                    }
                  },
                  {
                    "url": "level",
                    "valueCoding": {
                      "system": "http://terminology.hl7.org/CodeSystem/v3-LanguageAbilityProficiency",
                      "code": "G",
                      "display": "Good"
                    }
                  }
                ]
              }
            ]
          }
        ]
      },
      "request": {
        "method": "PUT",
        "url": "Patient/f238f1ae-2f55-cd21-5c90-5e68a10af8ce"
      }
    },
    {
      "fullUrl": "urn:uuid:10b5eb67-b60e-0272-b5af-026b77fa9253",
      "resource": {
        "resourceType": "MedicationAdministration",
        "id": "10b5eb67-b60e-0272-b5af-026b77fa9253",
        "identifier": [
          {
            "system": "urn:ietf:rfc:3986",
            "value": "urn:uuid:6c844c75-aa34-411c-b7bd-5e4a9f206e29"
          }
        ],
        "status": "completed",
        "effectiveDateTime": "2020-11-07T11:59:00-07:00",
        "dosage": {
          "route": {
            "coding": [
              {
                "code": "C38288",
                "system": "urn:oid:2.16.840.1.113883.3.26.1.1",
                "display": "ORAL"
              }
            ]
          },
          "dose": {
            "value": 1,
            "unit": "g"
          },
          "rateQuantity": {
            "value": 12,
            "unit": "h"
          }
        },
        "extension": [
          {
            "url": "http://hl7.org/fhir/us/ecr/StructureDefinition/us-ph-therapeutic-medication-response-extension",
            "valueCodeableConcept": {
              "coding": [
                {
                  "code": "268910001",
                  "system": "http://snomed.info/sct",
                  "display": "Patient's condition improved (finding)"
                }
              ]
            }
          }
        ],
        "subject": {
          "reference": "Patient/f238f1ae-2f55-cd21-5c90-5e68a10af8ce"
        },
        "medicationReference": {
          "reference": "Medication/24859385-bb9e-cae3-46e4-081d65e48689"
        }
      },
      "request": {
        "method": "PUT",
        "url": "MedicationAdministration/10b5eb67-b60e-0272-b5af-026b77fa9253"
      }
    },
    {
      "fullUrl": "urn:uuid:24859385-bb9e-cae3-46e4-081d65e48689",
      "resource": {
        "resourceType": "Medication",
        "id": "24859385-bb9e-cae3-46e4-081d65e48689",
        "code": {
          "coding": [
            {
              "code": "248656",
              "system": "http://www.nlm.nih.gov/research/umls/rxnorm",
              "display": "Azithromycin 500 MG Oral Tablet"
            }
          ]
        }
      },
      "request": {
        "method": "PUT",
        "url": "Medication/24859385-bb9e-cae3-46e4-081d65e48689"
      }
    },
    {
      "fullUrl": "urn:uuid:fe47f3c2-6f9a-0997-66b8-4584e3fecdc8",
      "resource": {
        "resourceType": "RelatedPerson",
        "id": "fe47f3c2-6f9a-0997-66b8-4584e3fecdc8",
        "name": [
          {
            "use": "official",
            "family": "Mum",
            "given": [
              "Martha",
              "L"
            ]
          }
        ],
        "telecom": [
          {
            "system": "phone",
            "value": "+1-555-555-2006",
            "use": "home"
          },
          {
            "system": "email",
            "value": "mail@guardian.com"
          }
        ],
        "address": [
          {
            "use": "home",
            "line": [
              "4444 Home Street"
            ],
            "city": "Ann Arbor",
            "state": "MI",
            "country": "US",
            "postalCode": "99999"
          }
        ],
        "patient": {
          "reference": "Patient/f238f1ae-2f55-cd21-5c90-5e68a10af8ce"
        }
      },
      "request": {
        "method": "PUT",
        "url": "RelatedPerson/fe47f3c2-6f9a-0997-66b8-4584e3fecdc8"
      }
    },
    {
      "fullUrl": "urn:uuid:2a400387-e218-396e-2d44-32ce20eaa1f7",
      "resource": {
        "resourceType": "Observation",
        "id": "2a400387-e218-396e-2d44-32ce20eaa1f7",
        "meta": {
          "profile": [
            "http://hl7.org/fhir/us/ecr/StructureDefinition/us-ph-pregnancy-status-observation"
          ]
        },
        "identifier": [
          {
            "system": "urn:ietf:rfc:3986",
            "value": "urn:uuid:bab77407-f76d-4a51-a2ed-980c8a59fe28"
          }
        ],
        "category": [
          {
            "coding": [
              {
                "system": "http://terminology.hl7.org/CodeSystem/observation-category",
                "code": "exam"
              }
            ]
          }
        ],
        "status": "final",
        "code": {
          "coding": [
            {
              "system": "http://loinc.org",
              "code": "82810-3",
              "display": "Pregnancy status"
            }
          ]
        },
        "effectivePeriod": {
          "start": "2017-08-26"
        },
        "valueCodeableConcept": {
          "coding": [
            {
              "code": "77386006",
              "system": "http://snomed.info/sct",
              "display": "Pregnant"
            }
          ]
        },
        "method": {
          "coding": [
            {
              "code": "16310003",
              "system": "http://snomed.info/sct",
              "display": "Diagnostic ultrasonography (procedure)"
            }
          ]
        },
        "component": [
          {
            "extension": [
              {
                "url": "http://hl7.org/fhir/us/ecr/StructureDefinition/us-ph-date-determined-extension",
                "valueDateTime": "2017-10-01T10:15:00"
              }
            ],
            "code": {
              "coding": [
                {
                  "code": "11780-4",
                  "system": "http://loinc.org",
                  "display": "Delivery date estimated from ovulation date"
                }
              ]
            },
            "valueDateTime": "2017-05-22"
          },
          {
            "extension": [
              {
                "url": "http://hl7.org/fhir/us/ecr/StructureDefinition/us-ph-date-determined-extension",
                "valueDateTime": "2017-10-01T10:15:00"
              }
            ],
            "code": {
              "coding": [
                {
                  "code": "11887-7",
                  "system": "http://loinc.org",
                  "display": "Gestational age Estimated from selected delivery date"
                }
              ]
            },
            "valueQuantity": {
              "value": 143,
              "unit": "d"
            }
          }
        ],
        "extension": [
          {
            "url": "http://hl7.org/fhir/us/ecr/StructureDefinition/us-ph-date-recorded-extension",
            "valueDateTime": "2017-10-01T10:35:00"
          },
          {
            "url": "http://hl7.org/fhir/us/ecr/StructureDefinition/us-ph-date-determined-extension",
            "valueDateTime": "2017-10-01"
          }
        ],
        "subject": {
          "reference": "Patient/f238f1ae-2f55-cd21-5c90-5e68a10af8ce"
        }
      },
      "request": {
        "method": "PUT",
        "url": "Observation/2a400387-e218-396e-2d44-32ce20eaa1f7"
      }
    },
    {
      "fullUrl": "urn:uuid:f85a5394-2752-45c5-5a83-116810fb69ee",
      "resource": {
        "resourceType": "Observation",
        "id": "f85a5394-2752-45c5-5a83-116810fb69ee",
        "meta": {
          "profile": [
            "http://hl7.org/fhir/us/ecr/StructureDefinition/us-ph-pregnancy-outcome-observation"
          ]
        },
        "identifier": [
          {
            "system": "urn:ietf:rfc:3986",
            "value": "urn:uuid:6df3e951-e6f8-441d-a298-d9d6d3f405db"
          }
        ],
        "category": [
          {
            "coding": [
              {
                "system": "http://terminology.hl7.org/CodeSystem/observation-category",
                "code": "exam"
              }
            ]
          }
        ],
        "status": "final",
        "code": {
          "coding": [
            {
              "system": "http://loinc.org",
              "code": "63893-2",
              "display": "Outcome of pregnancy"
            }
          ]
        },
        "effectiveDateTime": "2020-01-05T08:50:00",
        "valueCodeableConcept": {
          "coding": [
            {
              "code": "237364002",
              "system": "http://snomed.info/sct",
              "display": "Stillbirth (finding)"
            }
          ]
        },
        "component": [
          {
            "code": {
              "coding": [
                {
                  "system": "http://loinc.org",
                  "code": "73771-8",
                  "display": "Birth order"
                }
              ]
            },
            "valueInteger": 1
          }
        ],
        "subject": {
          "reference": "Patient/f238f1ae-2f55-cd21-5c90-5e68a10af8ce"
        },
        "focus": [
          {
            "reference": "Observation/2a400387-e218-396e-2d44-32ce20eaa1f7"
          }
        ]
      },
      "request": {
        "method": "PUT",
        "url": "Observation/f85a5394-2752-45c5-5a83-116810fb69ee"
      }
    },
    {
      "fullUrl": "urn:uuid:1d93a81a-783d-c53d-54c4-24e9f036600d",
      "resource": {
        "resourceType": "Observation",
        "id": "1d93a81a-783d-c53d-54c4-24e9f036600d",
        "meta": {
          "profile": [
            "http://hl7.org/fhir/us/vr-common-library/StructureDefinition/Observation-last-menstrual-period"
          ]
        },
        "identifier": [
          {
            "system": "urn:ietf:rfc:3986",
            "value": "urn:uuid:5ffea0ae-9ae5-4313-956a-30219b4a6afa"
          }
        ],
        "category": [
          {
            "coding": [
              {
                "system": "http://terminology.hl7.org/CodeSystem/observation-category",
                "code": "exam"
              }
            ]
          }
        ],
        "status": "final",
        "code": {
          "coding": [
            {
              "system": "http://loinc.org",
              "code": "8665-2",
              "display": "Last menstrual period start date"
            }
          ]
        },
        "effectiveDateTime": "2020-01-05T10:15:00",
        "valueDateTime": "2017-08-01",
        "subject": {
          "reference": "Patient/f238f1ae-2f55-cd21-5c90-5e68a10af8ce"
        }
      },
      "request": {
        "method": "PUT",
        "url": "Observation/1d93a81a-783d-c53d-54c4-24e9f036600d"
      }
    },
    {
      "fullUrl": "urn:uuid:94fe2533-e208-a1b4-c510-c9ece8a2d490",
      "resource": {
        "resourceType": "Observation",
        "id": "94fe2533-e208-a1b4-c510-c9ece8a2d490",
        "meta": {
          "profile": [
            "http://hl7.org/fhir/us/ecr/2.1.2/StructureDefinition-us-ph-postpartum-status"
          ]
        },
        "identifier": [
          {
            "system": "urn:ietf:rfc:3986",
            "value": "urn:uuid:9701b264-0f70-47f9-bfbf-aa4f9686cd3a"
          }
        ],
        "category": [
          {
            "coding": [
              {
                "system": "http://terminology.hl7.org/CodeSystem/observation-category",
                "code": "exam"
              }
            ]
          }
        ],
        "status": "final",
        "code": {
          "coding": [
            {
              "system": "http://snomed.info/sct",
              "code": "249197004",
              "display": "Maternal condition during puerperium (observable entity)"
            }
          ]
        },
        "effectiveDateTime": "2020-01-05T10:15:00",
        "valueCodeableConcept": {
          "coding": [
            {
              "code": "42814007",
              "system": "http://snomed.info/sct",
              "display": "Mid postpartum state (finding)"
            }
          ]
        },
        "subject": {
          "reference": "Patient/f238f1ae-2f55-cd21-5c90-5e68a10af8ce"
        }
      },
      "request": {
        "method": "PUT",
        "url": "Observation/94fe2533-e208-a1b4-c510-c9ece8a2d490"
      }
    },
    {
      "fullUrl": "urn:uuid:d48a8db3-dcea-9283-8af5-68cf694ef489",
      "resource": {
        "resourceType": "DiagnosticReport",
        "id": "d48a8db3-dcea-9283-8af5-68cf694ef489",
        "identifier": [
          {
            "system": "urn:ietf:rfc:3986",
            "value": "urn:uuid:7d5a02b0-67a4-11db-bd13-0800200c9a66"
          }
        ],
        "status": "final",
        "code": {
          "coding": [
            {
              "code": "57021-8",
              "system": "http://loinc.org",
              "display": "CBC W Auto Differential panel in Blood"
            }
          ]
        },
        "effectivePeriod": {
          "start": "2020-11-07",
          "end": "2020-11-07"
        },
        "extension": [
          {
            "url": "http://terminology.hl7.org/CodeSystem/v2-0123",
            "valueCodeableConcept": {
              "coding": [
                {
                  "code": "F",
                  "system": "urn:oid:2.16.840.1.113883.18.51",
                  "display": "Final results; results stored and verified. Can only be changed with a corrected result."
                }
              ]
            }
          }
        ],
        "subject": {
          "reference": "Patient/f238f1ae-2f55-cd21-5c90-5e68a10af8ce"
        },
        "result": [
          {
            "reference": "Observation/e333acb8-01e7-e1ea-e9bc-b87c9e8bfd7c"
          },
          {
            "reference": "Observation/4d749a1f-c826-e0c1-c5a8-4cdf22d35bd8"
          }
        ]
      },
      "request": {
        "method": "PUT",
        "url": "DiagnosticReport/d48a8db3-dcea-9283-8af5-68cf694ef489"
      }
    },
    {
      "fullUrl": "urn:uuid:e333acb8-01e7-e1ea-e9bc-b87c9e8bfd7c",
      "resource": {
        "resourceType": "Observation",
        "id": "e333acb8-01e7-e1ea-e9bc-b87c9e8bfd7c",
        "meta": {
          "profile": [
            "http://hl7.org/fhir/us/core/StructureDefinition/us-core-observationresults"
          ]
        },
        "identifier": [
          {
            "system": "urn:ietf:rfc:3986",
            "value": "urn:uuid:7c0704bb-9c40-41b5-9c7d-26b2d59e234f"
          }
        ],
        "category": [
          {
            "coding": [
              {
                "system": "http://terminology.hl7.org/CodeSystem/observation-category",
                "code": "laboratory"
              }
            ]
          }
        ],
        "status": "final",
        "code": {
          "coding": [
            {
              "code": "20570-8",
              "system": "http://loinc.org",
              "display": "Hematocrit"
            }
          ]
        },
        "effectiveDateTime": "2020-11-07",
        "valueQuantity": {
          "value": 35.3,
          "unit": "%"
        },
        "referenceRange": [
          {
            "text": "34.9 % - 44.5 %",
            "low": {
              "value": 34.9,
              "unit": "%"
            },
            "high": {
              "value": 44.5,
              "unit": "%"
            }
          }
        ],
        "interpretation": [
          {
            "coding": [
              {
                "code": "L",
                "system": "http://terminology.hl7.org/CodeSystem/v3-ObservationInterpretation",
                "display": "Low"
              }
            ]
          }
        ],
        "extension": [
          {
            "url": "http://hl7.org/fhir/R4/specimen.html",
            "extension": [
              {
                "url": "specimen source",
                "valueString": "Blood specimen (specimen)"
              },
              {
                "url": "specimen collection time",
                "valueDateTime": "2020-11-07"
              }
            ]
          }
        ],
        "subject": {
          "reference": "Patient/f238f1ae-2f55-cd21-5c90-5e68a10af8ce"
        }
      },
      "request": {
        "method": "PUT",
        "url": "Observation/e333acb8-01e7-e1ea-e9bc-b87c9e8bfd7c"
      }
    },
    {
      "fullUrl": "urn:uuid:4d749a1f-c826-e0c1-c5a8-4cdf22d35bd8",
      "resource": {
        "resourceType": "Observation",
        "id": "4d749a1f-c826-e0c1-c5a8-4cdf22d35bd8",
        "meta": {
          "profile": [
            "http://hl7.org/fhir/us/core/StructureDefinition/us-core-observationresults"
          ]
        },
        "identifier": [
          {
            "system": "urn:ietf:rfc:3986",
            "value": "urn:uuid:7c0704bb-9c40-41b5-9c7d-26b2d59e234g"
          }
        ],
        "category": [
          {
            "coding": [
              {
                "system": "http://terminology.hl7.org/CodeSystem/observation-category",
                "code": "laboratory"
              }
            ]
          }
        ],
        "status": "final",
        "code": {
          "coding": [
            {
              "code": "731-0",
              "system": "http://loinc.org",
              "display": "Lymphocytes [#/​volume] in Blood by Automated count"
            }
          ]
        },
        "effectiveDateTime": "2020-11-07",
        "valueQuantity": {
          "value": 5.2,
          "unit": "10*3/uL"
        },
        "referenceRange": [
          {
            "text": "1.0 10*3/uL - 4.8 10*3/uL",
            "low": {
              "value": 1.0,
              "unit": "10*3/uL"
            },
            "high": {
              "value": 4.8,
              "unit": "10*3/uL"
            }
          }
        ],
        "interpretation": [
          {
            "coding": [
              {
                "code": "H",
                "system": "http://terminology.hl7.org/CodeSystem/v3-ObservationInterpretation",
                "display": "High"
              }
            ]
          }
        ],
        "extension": [
          {
            "url": "http://hl7.org/fhir/R4/specimen.html",
            "extension": [
              {
                "url": "specimen source",
                "valueString": "Blood specimen (specimen)"
              },
              {
                "url": "specimen collection time",
                "valueDateTime": "2020-11-07"
              }
            ]
          }
        ],
        "subject": {
          "reference": "Patient/f238f1ae-2f55-cd21-5c90-5e68a10af8ce"
        }
      },
      "request": {
        "method": "PUT",
        "url": "Observation/4d749a1f-c826-e0c1-c5a8-4cdf22d35bd8"
      }
    },
    {
      "fullUrl": "urn:uuid:4d7742d0-7c59-6c90-d4de-9c7724df8470",
      "resource": {
        "resourceType": "DiagnosticReport",
        "id": "4d7742d0-7c59-6c90-d4de-9c7724df8470",
        "identifier": [
          {
            "system": "urn:ietf:rfc:3986",
            "value": "urn:uuid:a4307cb2-b3b4-4f42-be03-1d9077376f4a"
          }
        ],
        "status": "final",
        "code": {
          "coding": [
            {
              "code": "11585-7",
              "system": "http://loinc.org",
              "display": "Bordetella pertussis Ab [Units/volume] in Serum"
            }
          ]
        },
        "effectivePeriod": {
          "start": "2020-11-07",
          "end": "2020-11-07"
        },
        "subject": {
          "reference": "Patient/f238f1ae-2f55-cd21-5c90-5e68a10af8ce"
        },
        "result": [
          {
            "reference": "Observation/9066312e-2cd6-fc9d-223e-090aa5e566d8"
          }
        ]
      },
      "request": {
        "method": "PUT",
        "url": "DiagnosticReport/4d7742d0-7c59-6c90-d4de-9c7724df8470"
      }
    },
    {
      "fullUrl": "urn:uuid:9066312e-2cd6-fc9d-223e-090aa5e566d8",
      "resource": {
        "resourceType": "Observation",
        "id": "9066312e-2cd6-fc9d-223e-090aa5e566d8",
        "meta": {
          "profile": [
            "http://hl7.org/fhir/us/core/StructureDefinition/us-core-observationresults"
          ]
        },
        "identifier": [
          {
            "system": "urn:ietf:rfc:3986",
            "value": "urn:uuid:bf9c0a26-4524-4395-b3ce-100450b9c9ad"
          }
        ],
        "category": [
          {
            "coding": [
              {
                "system": "http://terminology.hl7.org/CodeSystem/observation-category",
                "code": "laboratory"
              }
            ]
          }
        ],
        "status": "final",
        "code": {
          "coding": [
            {
              "code": "11585-7",
              "system": "http://loinc.org",
              "display": "Bordetella pertussis Ab [Units/volume] in Serum"
            }
          ]
        },
        "effectiveDateTime": "2020-11-07",
        "valueQuantity": {
          "value": 100,
          "unit": "[iU]/mL"
        },
        "referenceRange": [
          {
            "high": {
              "value": 45,
              "unit": "[iU]/mL"
            }
          }
        ],
        "interpretation": [
          {
            "coding": [
              {
                "code": "H",
                "system": "http://terminology.hl7.org/CodeSystem/v3-ObservationInterpretation",
                "display": "High"
              }
            ]
          }
        ],
        "extension": [
          {
            "url": "http://hl7.org/fhir/R4/specimen.html",
            "extension": [
              {
                "url": "specimen collection time",
                "valueDateTime": "2020-11-07"
              }
            ]
          },
          {
            "url": "http://terminology.hl7.org/ValueSet/v2-0085",
            "valueCodeableConcept": {
              "coding": [
                {
                  "code": "F",
                  "system": "urn:oid:2.16.840.1.113883.18.34",
                  "display": "Final results"
                }
              ]
            }
          }
        ],
        "subject": {
          "reference": "Patient/f238f1ae-2f55-cd21-5c90-5e68a10af8ce"
        }
      },
      "request": {
        "method": "PUT",
        "url": "Observation/9066312e-2cd6-fc9d-223e-090aa5e566d8"
      }
    },
    {
      "fullUrl": "urn:uuid:84c92aee-b1f9-d4b8-0f08-68fdfe99d5b8",
      "resource": {
        "resourceType": "DiagnosticReport",
        "id": "84c92aee-b1f9-d4b8-0f08-68fdfe99d5b8",
        "identifier": [
          {
            "system": "urn:ietf:rfc:3986",
            "value": "urn:uuid:a4307cb2-b3b4-4f42-be03-1d9077376f4b"
          }
        ],
        "status": "preliminary",
        "code": {
          "coding": [
            {
              "code": "548-8",
              "system": "http://loinc.org",
              "display": "Bordetella pertussis [Presence] in Throat by Organism specific culture"
            }
          ]
        },
        "effectivePeriod": {
          "start": "2020-11-07",
          "end": "2020-11-07"
        },
        "subject": {
          "reference": "Patient/f238f1ae-2f55-cd21-5c90-5e68a10af8ce"
        },
        "result": [
          {
            "reference": "Observation/d9915885-4dd6-2c75-851c-419cf0438d37"
          }
        ]
      },
      "request": {
        "method": "PUT",
        "url": "DiagnosticReport/84c92aee-b1f9-d4b8-0f08-68fdfe99d5b8"
      }
    },
    {
      "fullUrl": "urn:uuid:d9915885-4dd6-2c75-851c-419cf0438d37",
      "resource": {
        "resourceType": "Observation",
        "id": "d9915885-4dd6-2c75-851c-419cf0438d37",
        "meta": {
          "profile": [
            "http://hl7.org/fhir/us/core/StructureDefinition/us-core-observationresults"
          ]
        },
        "identifier": [
          {
            "system": "urn:ietf:rfc:3986",
            "value": "urn:uuid:bf9c0a26-4524-4395-b3ce-100450b9c9ac"
          }
        ],
        "category": [
          {
            "coding": [
              {
                "system": "http://terminology.hl7.org/CodeSystem/observation-category",
                "code": "laboratory"
              }
            ]
          }
        ],
        "status": "preliminary",
        "code": {
          "coding": [
            {
              "code": "local_code_pertussis",
              "system": "urn:oid:2.16.840.1.113883.1.2.3.665",
              "display": "Bordetella pertussis in Throat by Organism specific culture"
            },
            {
              "code": "548-8",
              "system": "http://loinc.org",
              "display": "Bordetella pertussis [Presence] in Throat by Organism specific culture"
            }
          ]
        },
        "effectiveDateTime": "2020-11-07",
        "valueCodeableConcept": {
          "coding": [
            {
              "code": "5247005",
              "system": "http://snomed.info/sct",
              "display": "Bordetella pertussis (organism)"
            }
          ]
        },
        "interpretation": [
          {
            "coding": [
              {
                "code": "A",
                "system": "http://terminology.hl7.org/CodeSystem/v3-ObservationInterpretation",
                "display": "Abnormal"
              }
            ]
          }
        ],
        "extension": [
          {
            "url": "http://hl7.org/fhir/R4/specimen.html",
            "extension": [
              {
                "url": "specimen collection time",
                "valueDateTime": "2020-11-07"
              }
            ]
          },
          {
            "url": "http://terminology.hl7.org/ValueSet/v2-0085",
            "valueCodeableConcept": {
              "coding": [
                {
                  "code": "P",
                  "system": "urn:oid:2.16.840.1.113883.18.34",
                  "display": "Preliminary results"
                }
              ]
            }
          }
        ],
        "subject": {
          "reference": "Patient/f238f1ae-2f55-cd21-5c90-5e68a10af8ce"
        }
      },
      "request": {
        "method": "PUT",
        "url": "Observation/d9915885-4dd6-2c75-851c-419cf0438d37"
      }
    },
    {
      "fullUrl": "urn:uuid:f5279f37-1a07-98a4-d514-5b920a102829",
      "resource": {
        "resourceType": "Observation",
        "id": "f5279f37-1a07-98a4-d514-5b920a102829",
        "meta": {
          "profile": [
            "http://hl7.org/fhir/us/ecr/StructureDefinition/us-ph-characteristics-of-home-environment"
          ]
        },
        "identifier": [
          {
            "system": "urn:ietf:rfc:3986",
            "value": "urn:uuid:37f76c51-6411-4e1d-8a37-957fd49d2ced"
          }
        ],
        "category": [
          {
            "coding": [
              {
                "system": "http://terminology.hl7.org/CodeSystem/observation-category",
                "code": "social-history"
              }
            ]
          }
        ],
        "status": "final",
        "code": {
          "coding": [
            {
              "code": "75274-1",
              "system": "http://loinc.org",
              "display": "Characteristics of residence"
            }
          ]
        },
        "effectiveDateTime": "2020-11-09",
        "valueCodeableConcept": {
          "coding": [
            {
              "code": "32911000",
              "system": "http://snomed.info/sct",
              "display": "Homeless (finding)"
            }
          ]
        },
        "subject": {
          "reference": "Patient/f238f1ae-2f55-cd21-5c90-5e68a10af8ce"
        }
      },
      "request": {
        "method": "PUT",
        "url": "Observation/f5279f37-1a07-98a4-d514-5b920a102829"
      }
    },
    {
      "fullUrl": "urn:uuid:580d8a11-769f-74d0-36f1-affd02d5975c",
      "resource": {
        "resourceType": "Observation",
        "id": "580d8a11-769f-74d0-36f1-affd02d5975c",
        "meta": {
          "profile": [
            "http://hl7.org/fhir/us/ecr/StructureDefinition/us-ph-exposure-contact-information"
          ]
        },
        "identifier": [
          {
            "system": "urn:ietf:rfc:3986",
            "value": "urn:uuid:5f2e0ab0-b505-438a-9d50-f22d78ad1567"
          }
        ],
        "code": {
          "coding": [
            {
              "code": "C3841750",
              "system": "http://loinc.org",
              "display": "Mass gathering"
            }
          ],
          "text": "Football game"
        },
        "status": "final",
        "category": [
          {
            "coding": [
              {
                "system": "http://terminology.hl7.org/ValueSet/v3-ActClassExposure",
                "code": "EXPOS"
              }
            ]
          }
        ],
        "effectivePeriod": {
          "start": "2020-11-10T18:00:00",
          "end": "2020-11-10T21:30:00"
        },
        "valueCodeableConcept": {
          "coding": [
            {
              "code": "264379009",
              "system": "http://snomed.info/sct",
              "display": "Sports stadium (environment)"
            }
          ],
          "text": "City Football Stadium"
        },
        "extension": [
          {
            "url": "http://hl7.org/fhir/us/ecr/StructureDefinition/us-ph-address-extension",
            "valueAddress": {
              "line": [
                "99 Football Stadium Road"
              ],
              "city": "My City",
              "state": "AZ",
              "country": "US",
              "postalCode": "8562"
            }
          }
        ],
        "subject": {
          "reference": "Patient/f238f1ae-2f55-cd21-5c90-5e68a10af8ce"
        }
      },
      "request": {
        "method": "PUT",
        "url": "Observation/580d8a11-769f-74d0-36f1-affd02d5975c"
      }
    },
    {
      "fullUrl": "urn:uuid:a4052c7a-bd45-b9f6-46d5-2d7b646dde0a",
      "resource": {
        "resourceType": "Observation",
        "id": "a4052c7a-bd45-b9f6-46d5-2d7b646dde0a",
        "meta": {
          "profile": [
            "http://hl7.org/fhir/us/ecr/StructureDefinition/us-ph-exposure-contact-information"
          ]
        },
        "identifier": [
          {
            "system": "urn:ietf:rfc:3986",
            "value": "urn:uuid:a78adeed-d623-49cb-95df-42a0a2c33fca"
          }
        ],
        "code": {
          "coding": [
            {
              "code": "PHC2266",
              "system": "urn:oid:2.16.840.1.114222.4.5.274",
              "display": "Animal with confirmed or suspected case"
            }
          ]
        },
        "status": "final",
        "category": [
          {
            "coding": [
              {
                "system": "http://terminology.hl7.org/ValueSet/v3-ActClassExposure",
                "code": "EXPOS"
              }
            ]
          }
        ],
        "effectivePeriod": {
          "start": "2020-11-09",
          "end": "2020-11-13"
        },
        "focus": [
          {
            "reference": "RelatedPerson/2d776a00-fb02-b451-af3f-31a775136bec"
          }
        ],
        "subject": {
          "reference": "Patient/f238f1ae-2f55-cd21-5c90-5e68a10af8ce"
        }
      },
      "request": {
        "method": "PUT",
        "url": "Observation/a4052c7a-bd45-b9f6-46d5-2d7b646dde0a"
      }
    },
    {
      "fullUrl": "urn:uuid:2d776a00-fb02-b451-af3f-31a775136bec",
      "resource": {
        "resourceType": "RelatedPerson",
        "id": "2d776a00-fb02-b451-af3f-31a775136bec",
        "relationship": [
          {
            "coding": [
              {
                "code": "O",
                "display": "Other",
                "system": "http://terminology.hl7.org/CodeSystem/v2-0131"
              }
            ]
          }
        ],
        "extension": [
          {
            "url": "http://hl7.org/fhir/StructureDefinition/practitioner-animalSpecies",
            "valueCodeableConcept": {
              "coding": [
                {
                  "code": "35794008",
                  "system": "http://snomed.info/sct",
                  "display": "Wild mink (organism)"
                }
              ]
            }
          }
        ],
        "patient": {
          "reference": "Patient/f238f1ae-2f55-cd21-5c90-5e68a10af8ce"
        }
      },
      "request": {
        "method": "PUT",
        "url": "RelatedPerson/2d776a00-fb02-b451-af3f-31a775136bec"
      }
    },
    {
      "fullUrl": "urn:uuid:a1d4182f-0097-66b6-5bd2-64325b2cc715",
      "resource": {
        "resourceType": "Observation",
        "id": "a1d4182f-0097-66b6-5bd2-64325b2cc715",
        "meta": {
          "profile": [
            "http://hl7.org/fhir/us/ecr/StructureDefinition/us-ph-exposure-contact-information"
          ]
        },
        "identifier": [
          {
            "system": "urn:ietf:rfc:3986",
            "value": "urn:uuid:a78adeed-d623-49cb-95df-42a0a2c33fca"
          }
        ],
        "code": {
          "coding": [
            {
              "code": "PHC2267",
              "system": "urn:oid:2.16.840.1.114222.4.5.274",
              "display": "Contact with known case"
            }
          ]
        },
        "status": "final",
        "category": [
          {
            "coding": [
              {
                "system": "http://terminology.hl7.org/ValueSet/v3-ActClassExposure",
                "code": "EXPOS"
              }
            ]
          }
        ],
        "effectivePeriod": {
          "start": "2020-11-09",
          "end": "2020-11-13"
        },
        "component": [
          {
            "code": {
              "coding": [
                {
                  "system": "http://terminology.hl7.org/CodeSystem/v3-ParticipationType",
                  "code": "EXPAGNT",
                  "display": "Exposure Agent"
                }
              ]
            },
            "valueCodeableConcept": {
              "coding": [
                {
                  "code": "840533007",
                  "system": "http://snomed.info/sct",
                  "display": "Severe acute respiratory syndrome coronavirus 2 (organism)"
                }
              ]
            }
          }
        ],
        "focus": [
          {
            "reference": "RelatedPerson/96b4c889-7dbb-09fb-e270-2004bc0e7f0f"
          }
        ],
        "subject": {
          "reference": "Patient/f238f1ae-2f55-cd21-5c90-5e68a10af8ce"
        }
      },
      "request": {
        "method": "PUT",
        "url": "Observation/a1d4182f-0097-66b6-5bd2-64325b2cc715"
      }
    },
    {
      "fullUrl": "urn:uuid:96b4c889-7dbb-09fb-e270-2004bc0e7f0f",
      "resource": {
        "resourceType": "RelatedPerson",
        "id": "96b4c889-7dbb-09fb-e270-2004bc0e7f0f",
        "name": [
          {
            "use": "official",
            "family": "Everyman",
            "given": [
              "Adam"
            ]
          }
        ],
        "patient": {
          "reference": "Patient/f238f1ae-2f55-cd21-5c90-5e68a10af8ce"
        }
      },
      "request": {
        "method": "PUT",
        "url": "RelatedPerson/96b4c889-7dbb-09fb-e270-2004bc0e7f0f"
      }
    },
    {
      "fullUrl": "urn:uuid:88758e59-8554-85af-d347-90e6f5cb2c55",
      "resource": {
        "resourceType": "Observation",
        "id": "88758e59-8554-85af-d347-90e6f5cb2c55",
        "meta": {
          "profile": [
            "http://hl7.org/fhir/us/ecr/StructureDefinition/us-ph-travel-history"
          ]
        },
        "code": {
          "coding": [
            {
              "system": "http://snomed.info/sct",
              "code": "420008001",
              "display": "Travel"
            }
          ],
          "text": "Travel History"
        },
        "status": "final",
        "effectivePeriod": {
          "start": "1999",
          "end": "2007"
        },
        "subject": {
          "reference": "Patient/f238f1ae-2f55-cd21-5c90-5e68a10af8ce"
        }
      },
      "request": {
        "method": "PUT",
        "url": "Observation/88758e59-8554-85af-d347-90e6f5cb2c55"
      }
    },
    {
      "fullUrl": "urn:uuid:97b51123-4fab-9332-9e7e-b3afc57b45e1",
      "resource": {
        "resourceType": "Observation",
        "id": "97b51123-4fab-9332-9e7e-b3afc57b45e1",
        "meta": {
          "profile": [
            "http://hl7.org/fhir/us/ecr/StructureDefinition/us-ph-travel-history"
          ]
        },
        "code": {
          "coding": [
            {
              "system": "http://snomed.info/sct",
              "code": "420008001",
              "display": "Travel"
            }
          ],
          "text": "Travel History"
        },
        "status": "final",
        "effectivePeriod": {
          "end": "2020-11-09"
        },
        "component": [
          {
            "code": {
              "coding": [
                {
                  "system": "http://terminology.hl7.org/CodeSystem/v3-ParticipationType",
                  "code": "LOC",
                  "display": "Location"
                }
              ]
            },
            "valueCodeableConcept": {
              "coding": [
                {
                  "code": "BRA",
                  "system": "urn:oid:1.0.3166.1",
                  "display": "Brazil"
                }
              ]
            }
          }
        ],
        "subject": {
          "reference": "Patient/f238f1ae-2f55-cd21-5c90-5e68a10af8ce"
        }
      },
      "request": {
        "method": "PUT",
        "url": "Observation/97b51123-4fab-9332-9e7e-b3afc57b45e1"
      }
    },
    {
      "fullUrl": "urn:uuid:73501091-475b-ed11-39dc-2e810af60bef",
      "resource": {
        "resourceType": "Observation",
        "id": "73501091-475b-ed11-39dc-2e810af60bef",
        "meta": {
          "profile": [
            "http://hl7.org/fhir/us/ecr/StructureDefinition/us-ph-travel-history"
          ]
        },
        "code": {
          "coding": [
            {
              "system": "http://snomed.info/sct",
              "code": "420008001",
              "display": "Travel"
            }
          ],
          "text": "Travel History"
        },
        "status": "final",
        "effectivePeriod": {
          "start": "2020-04-25",
          "end": "2020-04-30"
        },
        "component": [
          {
            "code": {
              "coding": [
                {
                  "system": "http://terminology.hl7.org/CodeSystem/v3-ParticipationType",
                  "code": "LOC",
                  "display": "Location"
                }
              ]
            },
            "extension": [
              {
                "url": "http://hl7.org/fhir/us/ecr/StructureDefinition/us-ph-address-extension",
                "valueAddress": {
                  "city": "Nadi",
                  "country": "FJ"
                }
              }
            ]
          },
          {
            "code": {
              "coding": [
                {
                  "system": "http://snomed.info/sct",
                  "code": "280147009",
                  "display": "Travel Purpose"
                }
              ]
            },
            "valueCodeableConcept": {
              "coding": [
                {
                  "code": "C0683587",
                  "system": "urn:oid:2.16.840.1.113883.6.86",
                  "display": "tourism"
                }
              ]
            }
          }
        ],
        "subject": {
          "reference": "Patient/f238f1ae-2f55-cd21-5c90-5e68a10af8ce"
        },
        "hasMember": [
          {
            "reference": "Observation/7ea16f9a-29a7-dff0-5d8c-d3391f91cfe9"
          }
        ]
      },
      "request": {
        "method": "PUT",
        "url": "Observation/73501091-475b-ed11-39dc-2e810af60bef"
      }
    },
    {
      "fullUrl": "urn:uuid:7ea16f9a-29a7-dff0-5d8c-d3391f91cfe9",
      "resource": {
        "resourceType": "Observation",
        "id": "7ea16f9a-29a7-dff0-5d8c-d3391f91cfe9",
        "meta": {
          "profile": [
            "http://hl7.org/fhir/us/ecr/StructureDefinition/us-ph-transportation-details"
          ]
        },
        "category": [
          {
            "coding": [
              {
                "system": "http://terminology.hl7.org/CodeSystem/v3-ActClass",
                "code": "TRNS",
                "display": "Transportation"
              }
            ]
          }
        ],
        "code": {
          "coding": [
            {
              "system": "http://snomed.info/sct",
              "code": "424483007",
              "display": "Transportation details"
            }
          ]
        },
        "status": "final",
        "valueCodeableConcept": {
          "coding": [
            {
              "code": "21812002",
              "system": "http://loinc.org",
              "display": "Ocean liner, device (physical object)"
            }
          ]
        },
        "component": [
          {
            "code": {
              "coding": [
                {
                  "display": "Ship Name"
                }
              ],
              "text": "Ship Name"
            },
            "valueString": "Princess of the Sea"
          },
          {
            "code": {
              "coding": [
                {
                  "display": "Cabin Number"
                }
              ],
              "text": "Cabin Number"
            },
            "valueString": "69B"
          }
        ],
        "subject": {
          "reference": "Patient/f238f1ae-2f55-cd21-5c90-5e68a10af8ce"
        }
      },
      "request": {
        "method": "PUT",
        "url": "Observation/7ea16f9a-29a7-dff0-5d8c-d3391f91cfe9"
      }
    },
    {
      "fullUrl": "urn:uuid:b8678cc4-fcdf-54c6-3bc8-65aa54dcdb1f",
      "resource": {
        "resourceType": "Observation",
        "id": "b8678cc4-fcdf-54c6-3bc8-65aa54dcdb1f",
        "meta": {
          "profile": [
            "http://hl7.org/fhir/us/ecr/StructureDefinition/us-ph-travel-history"
          ]
        },
        "code": {
          "coding": [
            {
              "system": "http://snomed.info/sct",
              "code": "420008001",
              "display": "Travel"
            }
          ],
          "text": "Travel History"
        },
        "status": "final",
        "effectivePeriod": {
          "start": "2020-05-06",
          "end": "2020-05-15"
        },
        "component": [
          {
            "code": {
              "coding": [
                {
                  "system": "http://terminology.hl7.org/CodeSystem/v3-ParticipationType",
                  "code": "LOC",
                  "display": "Location"
                }
              ]
            },
            "extension": [
              {
                "url": "http://hl7.org/fhir/us/ecr/StructureDefinition/us-ph-address-extension",
                "valueAddress": {
                  "city": "Montreal",
                  "state": "QC",
                  "country": "CA"
                }
              }
            ]
          }
        ],
        "subject": {
          "reference": "Patient/f238f1ae-2f55-cd21-5c90-5e68a10af8ce"
        }
      },
      "request": {
        "method": "PUT",
        "url": "Observation/b8678cc4-fcdf-54c6-3bc8-65aa54dcdb1f"
      }
    },
    {
      "fullUrl": "urn:uuid:4097baf8-254f-2c1f-a130-8668d962e4bb",
      "resource": {
        "resourceType": "Observation",
        "id": "4097baf8-254f-2c1f-a130-8668d962e4bb",
        "meta": {
          "profile": [
            "http://hl7.org/fhir/us/ecr/StructureDefinition/us-ph-travel-history"
          ]
        },
        "code": {
          "coding": [
            {
              "system": "http://snomed.info/sct",
              "code": "420008001",
              "display": "Travel"
            }
          ],
          "text": "Travel History"
        },
        "status": "final",
        "effectivePeriod": {
          "start": "2020-07-13",
          "end": "2020-07-15"
        },
        "component": [
          {
            "code": {
              "coding": [
                {
                  "system": "http://terminology.hl7.org/CodeSystem/v3-ParticipationType",
                  "code": "LOC",
                  "display": "Location"
                }
              ]
            },
            "extension": [
              {
                "url": "http://hl7.org/fhir/us/ecr/StructureDefinition/us-ph-address-extension",
                "valueAddress": {
                  "city": "Sydney",
                  "state": "NSW",
                  "country": "AU"
                }
              }
            ]
          }
        ],
        "subject": {
          "reference": "Patient/f238f1ae-2f55-cd21-5c90-5e68a10af8ce"
        }
      },
      "request": {
        "method": "PUT",
        "url": "Observation/4097baf8-254f-2c1f-a130-8668d962e4bb"
      }
    },
    {
      "fullUrl": "urn:uuid:547dbdf1-aa96-f6aa-2dfb-b0caaff05586",
      "resource": {
        "resourceType": "Observation",
        "id": "547dbdf1-aa96-f6aa-2dfb-b0caaff05586",
        "meta": {
          "profile": [
            "http://hl7.org/fhir/us/ecr/StructureDefinition/us-ph-travel-history"
          ]
        },
        "code": {
          "coding": [
            {
              "system": "http://snomed.info/sct",
              "code": "420008001",
              "display": "Travel"
            }
          ],
          "text": "Travel History"
        },
        "status": "final",
        "effectivePeriod": {
          "start": "2020-10-22",
          "end": "2020-10-30"
        },
        "component": [
          {
            "code": {
              "coding": [
                {
                  "system": "http://terminology.hl7.org/CodeSystem/v3-ParticipationType",
                  "code": "LOC",
                  "display": "Location"
                }
              ]
            },
            "extension": [
              {
                "url": "http://hl7.org/fhir/us/ecr/StructureDefinition/us-ph-address-extension",
                "valueAddress": {
                  "line": [
                    "1170 N Rancho Robles Rd"
                  ],
                  "city": "Oracle",
                  "state": "AZ",
                  "country": "US",
                  "postalCode": "8562"
                }
              }
            ]
          }
        ],
        "subject": {
          "reference": "Patient/f238f1ae-2f55-cd21-5c90-5e68a10af8ce"
        }
      },
      "request": {
        "method": "PUT",
        "url": "Observation/547dbdf1-aa96-f6aa-2dfb-b0caaff05586"
      }
    },
    {
      "fullUrl": "urn:uuid:c241ed7b-dc3d-7055-5d3e-a307f8494b07",
      "resource": {
        "resourceType": "Observation",
        "id": "c241ed7b-dc3d-7055-5d3e-a307f8494b07",
        "meta": {
          "profile": [
            "http://hl7.org/fhir/us/core/StructureDefinition/us-core-observationresults"
          ]
        },
        "identifier": [
          {
            "system": "urn:ietf:rfc:3986",
            "value": "urn:uuid:3adc7f4d-ff0a-4b38-9252-bd65edbe3dfg"
          }
        ],
        "category": [
          {
            "coding": [
              {
                "system": "http://terminology.hl7.org/CodeSystem/observation-category",
                "code": "social-history"
              }
            ]
          }
        ],
        "status": "final",
        "code": {
          "coding": [
            {
              "code": "77983-5",
              "system": "http://loinc.org",
              "display": "Country of usual residence"
            }
          ]
        },
        "valueCodeableConcept": {
          "coding": [
            {
              "code": "GB",
              "system": "urn:oid:1.0.3166.1.2.2",
              "display": "United Kingdom of Great Britain and Northern Ireland"
            }
          ]
        },
        "subject": {
          "reference": "Patient/f238f1ae-2f55-cd21-5c90-5e68a10af8ce"
        }
      },
      "request": {
        "method": "PUT",
        "url": "Observation/c241ed7b-dc3d-7055-5d3e-a307f8494b07"
      }
    },
    {
      "fullUrl": "urn:uuid:962570d9-01a7-db34-f8c9-57168e44510d",
      "resource": {
        "resourceType": "Observation",
        "id": "962570d9-01a7-db34-f8c9-57168e44510d",
        "meta": {
          "profile": [
            "http://hl7.org/fhir/us/core/StructureDefinition/us-core-observationresults"
          ]
        },
        "identifier": [
          {
            "system": "urn:ietf:rfc:3986",
            "value": "urn:uuid:3adc7f4d-ff0a-4b38-9252-bd65edbe3dfa"
          }
        ],
        "category": [
          {
            "coding": [
              {
                "system": "http://terminology.hl7.org/CodeSystem/observation-category",
                "code": "social-history"
              }
            ]
          }
        ],
        "status": "final",
        "code": {
          "coding": [
            {
              "code": "186034007",
              "system": "http://snomed.info/sct",
              "display": "Ethnicity / related nationality data (observable entity)"
            }
          ]
        },
        "valueCodeableConcept": {
          "coding": [
            {
              "code": "AU",
              "system": "urn:oid:1.0.3166.1.2.2",
              "display": "Australia"
            }
          ]
        },
        "subject": {
          "reference": "Patient/f238f1ae-2f55-cd21-5c90-5e68a10af8ce"
        }
      },
      "request": {
        "method": "PUT",
        "url": "Observation/962570d9-01a7-db34-f8c9-57168e44510d"
      }
    },
    {
      "fullUrl": "urn:uuid:7bdd3e8f-3ec3-05e6-907b-980211b39b3a",
      "resource": {
        "resourceType": "Observation",
        "id": "7bdd3e8f-3ec3-05e6-907b-980211b39b3a",
        "meta": {
          "profile": [
            "http://hl7.org/fhir/us/ecr/StructureDefinition/us-ph-disability-status"
          ]
        },
        "identifier": [
          {
            "system": "urn:ietf:rfc:3986",
            "value": "urn:uuid:c09ac074-605e-47bd-8b1c-735e7321fbc2"
          }
        ],
        "category": [
          {
            "coding": [
              {
                "system": "http://terminology.hl7.org/CodeSystem/observation-category",
                "code": "social-history"
              }
            ]
          }
        ],
        "status": "final",
        "code": {
          "coding": [
            {
              "code": "69856-3",
              "system": "http://loinc.org",
              "display": "Are you deaf, or do you have serious difficulty hearing [HHS.ACA Section 4302]"
            }
          ]
        },
        "effectiveDateTime": "2020-11-09",
        "valueBoolean": true,
        "subject": {
          "reference": "Patient/f238f1ae-2f55-cd21-5c90-5e68a10af8ce"
        }
      },
      "request": {
        "method": "PUT",
        "url": "Observation/7bdd3e8f-3ec3-05e6-907b-980211b39b3a"
      }
    },
    {
      "fullUrl": "urn:uuid:5653f67a-bd5f-d5eb-a36e-0a2b4626e1a6",
      "resource": {
        "resourceType": "Observation",
        "id": "5653f67a-bd5f-d5eb-a36e-0a2b4626e1a6",
        "meta": {
          "profile": [
            "http://hl7.org/fhir/us/odh/StructureDefinition/odh-UsualWork"
          ]
        },
        "identifier": [
          {
            "system": "urn:ietf:rfc:3986",
            "value": "urn:uuid:4f4b3876-8570-41a0-b995-cf34f37c5cbf"
          }
        ],
        "category": [
          {
            "coding": [
              {
                "system": "http://terminology.hl7.org/CodeSystem/observation-category",
                "code": "social-history"
              }
            ]
          }
        ],
        "status": "final",
        "code": {
          "coding": [
            {
              "code": "21843-8",
              "system": "http://loinc.org",
              "display": "Usual Occupation"
            }
          ]
        },
        "effectivePeriod": {
          "start": "1996-11-24"
        },
        "valueCodeableConcept": {
          "coding": [
            {
              "code": "3600",
              "system": "urn:oid:2.16.840.1.113883.6.240",
              "display": "Nursing, psychiatric, and home health aides"
            },
            {
              "code": "31-1014.00.007136",
              "system": "urn:oid:2.16.840.1.114222.4.5.327",
              "display": "Certified Nursing Assistant (CNA) [Nursing Assistants]"
            }
          ]
        },
        "component": [
          {
            "code": {
              "coding": [
                {
                  "code": "21844-6",
                  "system": "http://loinc.org",
                  "display": "Usual Industry"
                }
              ]
            },
            "valueCodeableConcept": {
              "coding": [
                {
                  "code": "8270",
                  "system": "urn:oid:2.16.840.1.114222.4.5.315",
                  "display": "Nursing care facilities"
                },
                {
                  "code": "621610.008495",
                  "system": "urn:oid:2.16.840.1.114222.4.5.327",
                  "display": "Home nursing services"
                }
              ]
            }
          }
        ],
        "subject": {
          "reference": "Patient/f238f1ae-2f55-cd21-5c90-5e68a10af8ce"
        }
      },
      "request": {
        "method": "PUT",
        "url": "Observation/5653f67a-bd5f-d5eb-a36e-0a2b4626e1a6"
      }
    },
    {
      "fullUrl": "urn:uuid:3f173e4d-0ac7-bc1b-dd38-1df99c48640e",
      "resource": {
        "resourceType": "Organization",
        "id": "3f173e4d-0ac7-bc1b-dd38-1df99c48640e",
        "identifier": [
          {
            "system": "urn:oid:58822180-ab0d-42e4-90c6-35336bf55654",
            "value": "12345"
          }
        ],
        "name": "University Hospital",
        "address": [
          {
            "line": [
              "Peachtree St"
            ],
            "city": "Atlanta",
            "state": "Georgia"
          }
        ],
        "telecom": [
          {
            "value": "555-1212",
            "use": "work"
          }
        ]
      },
      "request": {
        "method": "PUT",
        "url": "Organization/3f173e4d-0ac7-bc1b-dd38-1df99c48640e"
      }
    },
    {
      "resource": {
        "resourceType": "Observation",
        "id": "77d57bd0-c41e-78f4-cbbb-218b4a2c412a",
        "extension": [
          {
            "url": "http://hl7.org/fhir/us/odh/StructureDefinition/odh-Employer-extension",
            "valueReference": {
              "reference": "Organization/3f173e4d-0ac7-bc1b-dd38-1df99c48640e"
            }
          }
        ],
        "meta": {
          "profile": [
            "http://hl7.org/fhir/us/odh/StructureDefinition/odh-PastOrPresentJob"
          ]
        },
        "identifier": [
          {
            "system": "urn:ietf:rfc:3986",
            "value": "urn:uuid:1728123a-7b6c-418c-adc2-f78417caf62c"
          }
        ],
        "category": [
          {
            "coding": [
              {
                "system": "http://terminology.hl7.org/CodeSystem/observation-category",
                "code": "social-history"
              }
            ]
          }
        ],
        "status": "unknown",
        "code": {
          "coding": [
            {
              "code": "11341-5",
              "system": "http://loinc.org",
              "display": "History of Occupation"
            }
          ]
        },
        "effectivePeriod": {
          "start": "2015-04-24"
        },
        "valueCodeableConcept": {
          "coding": [
            {
              "code": "3600",
              "system": "urn:oid:2.16.840.1.113883.6.240",
              "display": "Nursing, psychiatric, and home health aides"
            },
            {
              "code": "31-1014.00.007136",
              "system": "urn:oid:2.16.840.1.114222.4.5.327",
              "display": "Certified Nursing Assistant (CNA) [Nursing Assistants]"
            }
          ]
        },
        "component": [
          {
            "code": {
              "coding": [
                {
                  "code": "87729-0",
                  "system": "http://loinc.org",
                  "display": "History of Occupational hazard"
                }
              ]
            },
            "valueString": "Asbestos"
          },
          {
            "code": {
              "coding": [
                {
                  "code": "86188-0",
                  "system": "http://loinc.org",
                  "display": "Occupation Industry"
                }
              ]
            },
            "valueCodeableConcept": {
              "coding": [
                {
                  "code": "8270",
                  "system": "urn:oid:2.16.840.1.114222.4.5.315",
                  "display": "Nursing care facilities"
                },
                {
                  "code": "621610.008495",
                  "system": "urn:oid:2.16.840.1.114222.4.5.327",
                  "display": "Home nursing services"
                }
              ]
            }
          }
        ],
        "subject": {
          "reference": "Patient/f238f1ae-2f55-cd21-5c90-5e68a10af8ce"
        }
      },
      "fullUrl": "urn:uuid:77d57bd0-c41e-78f4-cbbb-218b4a2c412a",
      "request": {
        "method": "PUT",
        "url": "Observation/77d57bd0-c41e-78f4-cbbb-218b4a2c412a"
      }
    },
    {
      "fullUrl": "urn:uuid:aa4503c3-c475-e3dd-96fa-814291526157",
      "resource": {
        "resourceType": "Observation",
        "id": "aa4503c3-c475-e3dd-96fa-814291526157",
        "meta": {
          "profile": [
            "http://hl7.org/fhir/us/core/StructureDefinition/us-core-observationresults"
          ]
        },
        "identifier": [
          {
            "system": "urn:ietf:rfc:3986",
            "value": "urn:uuid:c1e39467-4b79-474e-9c75-927b45e8616a"
          }
        ],
        "category": [
          {
            "coding": [
              {
                "system": "http://terminology.hl7.org/CodeSystem/observation-category",
                "code": "social-history"
              }
            ]
          }
        ],
        "status": "final",
        "code": {
          "coding": [
            {
              "code": "74165-2",
              "system": "http://loinc.org",
              "display": "History of Employment Status"
            }
          ]
        },
        "effectivePeriod": {
          "start": "2017-01-16T15:47:14"
        },
        "valueCodeableConcept": {
          "coding": [
            {
              "code": "Employed",
              "system": "urn:oid:2.16.840.1.113883.5.1063",
              "display": "Employed"
            }
          ]
        },
        "subject": {
          "reference": "Patient/f238f1ae-2f55-cd21-5c90-5e68a10af8ce"
        }
      },
      "request": {
        "method": "PUT",
        "url": "Observation/aa4503c3-c475-e3dd-96fa-814291526157"
      }
    },
    {
      "fullUrl": "urn:uuid:daab0fc7-6a51-0e82-b16b-8541a088ec56",
      "resource": {
        "resourceType": "Observation",
        "id": "daab0fc7-6a51-0e82-b16b-8541a088ec56",
        "meta": {
          "profile": [
            "http://hl7.org/fhir/us/core/StructureDefinition/us-core-observationresults"
          ]
        },
        "identifier": [
          {
            "system": "urn:ietf:rfc:3986",
            "value": "urn:uuid:2721acc5-0d05-4402-9e62-79943ea3901c"
          }
        ],
        "category": [
          {
            "coding": [
              {
                "system": "http://terminology.hl7.org/CodeSystem/observation-category",
                "code": "vital-signs"
              }
            ]
          }
        ],
        "status": "final",
        "code": {
          "coding": [
            {
              "code": "8480-6",
              "system": "http://loinc.org",
              "display": "SYSTOLIC BLOOD PRESSURE"
            }
          ]
        },
        "effectiveDateTime": "2014-05-20T19:36:05-05:00",
        "valueQuantity": {
          "value": 120,
          "unit": "mm[Hg]"
        },
        "subject": {
          "reference": "Patient/f238f1ae-2f55-cd21-5c90-5e68a10af8ce"
        }
      },
      "request": {
        "method": "PUT",
        "url": "Observation/daab0fc7-6a51-0e82-b16b-8541a088ec56"
      }
    },
    {
      "fullUrl": "urn:uuid:8e60fc3c-0790-08ce-da9b-4da0bb028115",
      "resource": {
        "resourceType": "Observation",
        "id": "8e60fc3c-0790-08ce-da9b-4da0bb028115",
        "meta": {
          "profile": [
            "http://hl7.org/fhir/us/core/StructureDefinition/us-core-observationresults"
          ]
        },
        "identifier": [
          {
            "system": "urn:ietf:rfc:3986",
            "value": "urn:uuid:88a01c83-a096-4705-a992-b5f59eca8c8c"
          }
        ],
        "category": [
          {
            "coding": [
              {
                "system": "http://terminology.hl7.org/CodeSystem/observation-category",
                "code": "vital-signs"
              }
            ]
          }
        ],
        "status": "final",
        "code": {
          "coding": [
            {
              "code": "8462-4",
              "system": "http://loinc.org",
              "display": "DIASTOLIC BLOOD PRESSURE"
            }
          ]
        },
        "effectiveDateTime": "2014-05-20T19:36:05-05:00",
        "valueQuantity": {
          "value": 80,
          "unit": "mm[Hg]"
        },
        "subject": {
          "reference": "Patient/f238f1ae-2f55-cd21-5c90-5e68a10af8ce"
        }
      },
      "request": {
        "method": "PUT",
        "url": "Observation/8e60fc3c-0790-08ce-da9b-4da0bb028115"
      }
    },
    {
      "fullUrl": "urn:uuid:c553f18d-9df3-590b-5900-acf75899ec21",
      "resource": {
        "resourceType": "Observation",
        "id": "c553f18d-9df3-590b-5900-acf75899ec21",
        "meta": {
          "profile": [
            "http://hl7.org/fhir/us/core/StructureDefinition/us-core-observationresults"
          ]
        },
        "identifier": [
          {
            "system": "urn:ietf:rfc:3986",
            "value": "urn:uuid:83bbffe1-54e5-4984-a32d-ad8f8d6896d8"
          }
        ],
        "category": [
          {
            "coding": [
              {
                "system": "http://terminology.hl7.org/CodeSystem/observation-category",
                "code": "vital-signs"
              }
            ]
          }
        ],
        "status": "final",
        "code": {
          "coding": [
            {
              "code": "8867-4",
              "system": "http://loinc.org",
              "display": "HEART RATE"
            }
          ]
        },
        "effectiveDateTime": "2014-05-20T19:36:05-05:00",
        "valueQuantity": {
          "value": 80,
          "unit": "/min"
        },
        "subject": {
          "reference": "Patient/f238f1ae-2f55-cd21-5c90-5e68a10af8ce"
        }
      },
      "request": {
        "method": "PUT",
        "url": "Observation/c553f18d-9df3-590b-5900-acf75899ec21"
      }
    },
    {
      "fullUrl": "urn:uuid:08747908-0c7e-9928-913d-65d7243d9487",
      "resource": {
        "resourceType": "Observation",
        "id": "08747908-0c7e-9928-913d-65d7243d9487",
        "meta": {
          "profile": [
            "http://hl7.org/fhir/us/core/StructureDefinition/us-core-observationresults"
          ]
        },
        "identifier": [
          {
            "system": "urn:ietf:rfc:3986",
            "value": "urn:uuid:85f5784f-2958-4321-b7b6-3030d1577dc0"
          }
        ],
        "category": [
          {
            "coding": [
              {
                "system": "http://terminology.hl7.org/CodeSystem/observation-category",
                "code": "vital-signs"
              }
            ]
          }
        ],
        "status": "final",
        "code": {
          "coding": [
            {
              "code": "8310-5",
              "system": "http://loinc.org",
              "display": "BODY TEMPERATURE"
            }
          ]
        },
        "effectiveDateTime": "2014-05-20T19:36:05-05:00",
        "valueQuantity": {
          "value": 99.0,
          "unit": "[degF]"
        },
        "subject": {
          "reference": "Patient/f238f1ae-2f55-cd21-5c90-5e68a10af8ce"
        }
      },
      "request": {
        "method": "PUT",
        "url": "Observation/08747908-0c7e-9928-913d-65d7243d9487"
      }
    },
    {
      "fullUrl": "urn:uuid:fb26676b-06f1-676c-acb2-458126dc6535",
      "resource": {
        "resourceType": "Observation",
        "id": "fb26676b-06f1-676c-acb2-458126dc6535",
        "meta": {
          "profile": [
            "http://hl7.org/fhir/us/core/StructureDefinition/us-core-observationresults"
          ]
        },
        "identifier": [
          {
            "system": "urn:ietf:rfc:3986",
            "value": "urn:uuid:b618fa98-6596-4e19-a9e7-6bdb48012fc8"
          }
        ],
        "category": [
          {
            "coding": [
              {
                "system": "http://terminology.hl7.org/CodeSystem/observation-category",
                "code": "vital-signs"
              }
            ]
          }
        ],
        "status": "final",
        "code": {
          "coding": [
            {
              "code": "9279-1",
              "system": "http://loinc.org",
              "display": "RESPIRATORY RATE"
            }
          ]
        },
        "effectiveDateTime": "2014-05-20T19:36:05-05:00",
        "valueQuantity": {
          "value": 18,
          "unit": "/min"
        },
        "subject": {
          "reference": "Patient/f238f1ae-2f55-cd21-5c90-5e68a10af8ce"
        }
      },
      "request": {
        "method": "PUT",
        "url": "Observation/fb26676b-06f1-676c-acb2-458126dc6535"
      }
    },
    {
      "fullUrl": "urn:uuid:a7226ec7-2e47-136b-c464-9ae6552f0a15",
      "resource": {
        "resourceType": "Observation",
        "id": "a7226ec7-2e47-136b-c464-9ae6552f0a15",
        "meta": {
          "profile": [
            "http://hl7.org/fhir/us/core/StructureDefinition/us-core-observationresults"
          ]
        },
        "identifier": [
          {
            "system": "urn:ietf:rfc:3986",
            "value": "urn:uuid:1b1274a9-b45f-449a-8493-08eaeaeba7d6"
          }
        ],
        "category": [
          {
            "coding": [
              {
                "system": "http://terminology.hl7.org/CodeSystem/observation-category",
                "code": "vital-signs"
              }
            ]
          }
        ],
        "status": "final",
        "code": {
          "coding": [
            {
              "code": "8302-2",
              "system": "http://loinc.org",
              "display": "HEIGHT"
            }
          ]
        },
        "effectiveDateTime": "2014-05-20T19:36:05-05:00",
        "valueQuantity": {
          "value": 67,
          "unit": "[in_us]"
        },
        "subject": {
          "reference": "Patient/f238f1ae-2f55-cd21-5c90-5e68a10af8ce"
        }
      },
      "request": {
        "method": "PUT",
        "url": "Observation/a7226ec7-2e47-136b-c464-9ae6552f0a15"
      }
    },
    {
      "fullUrl": "urn:uuid:38c6218f-8693-d40d-f1ce-5d345f32a553",
      "resource": {
        "resourceType": "Observation",
        "id": "38c6218f-8693-d40d-f1ce-5d345f32a553",
        "meta": {
          "profile": [
            "http://hl7.org/fhir/us/core/StructureDefinition/us-core-observationresults"
          ]
        },
        "identifier": [
          {
            "system": "urn:ietf:rfc:3986",
            "value": "urn:uuid:1c1f89f1-8e93-4a46-b37f-9434f99727b8"
          }
        ],
        "category": [
          {
            "coding": [
              {
                "system": "http://terminology.hl7.org/CodeSystem/observation-category",
                "code": "vital-signs"
              }
            ]
          }
        ],
        "status": "final",
        "code": {
          "coding": [
            {
              "code": "3141-9",
              "system": "http://loinc.org",
              "display": "WEIGHT"
            }
          ]
        },
        "effectiveDateTime": "2014-05-20T19:36:05-05:00",
        "valueQuantity": {
          "value": 239.9,
          "unit": "[lb_av]"
        },
        "subject": {
          "reference": "Patient/f238f1ae-2f55-cd21-5c90-5e68a10af8ce"
        }
      },
      "request": {
        "method": "PUT",
        "url": "Observation/38c6218f-8693-d40d-f1ce-5d345f32a553"
      }
    },
    {
      "fullUrl": "urn:uuid:16e91e0a-8e11-7635-f67a-f0cc88395e8d",
      "resource": {
        "resourceType": "Observation",
        "id": "16e91e0a-8e11-7635-f67a-f0cc88395e8d",
        "meta": {
          "profile": [
            "http://hl7.org/fhir/us/core/StructureDefinition/us-core-observationresults"
          ]
        },
        "identifier": [
          {
            "system": "urn:ietf:rfc:3986",
            "value": "urn:uuid:fd4ccd0b-c045-4587-8976-a17e2e064a1e"
          }
        ],
        "category": [
          {
            "coding": [
              {
                "system": "http://terminology.hl7.org/CodeSystem/observation-category",
                "code": "vital-signs"
              }
            ]
          }
        ],
        "status": "final",
        "code": {
          "coding": [
            {
              "code": "39156-5",
              "system": "http://loinc.org",
              "display": "BODY MASS INDEX"
            }
          ]
        },
        "effectiveDateTime": "2014-05-20T19:36:05-05:00",
        "valueQuantity": {
          "value": 37.58,
          "unit": "kg/m2"
        },
        "subject": {
          "reference": "Patient/f238f1ae-2f55-cd21-5c90-5e68a10af8ce"
        }
      },
      "request": {
        "method": "PUT",
        "url": "Observation/16e91e0a-8e11-7635-f67a-f0cc88395e8d"
      }
    },
    {
      "fullUrl": "urn:uuid:5a2fdf42-c9cd-7938-6f1e-faceebac6f1c",
      "resource": {
        "resourceType": "Observation",
        "id": "5a2fdf42-c9cd-7938-6f1e-faceebac6f1c",
        "meta": {
          "profile": [
            "http://hl7.org/fhir/us/core/StructureDefinition/us-core-observationresults"
          ]
        },
        "identifier": [
          {
            "system": "urn:ietf:rfc:3986",
            "value": "urn:uuid:0ef4afda-1638-4ad2-9978-7321bbceb0cb"
          }
        ],
        "category": [
          {
            "coding": [
              {
                "system": "http://terminology.hl7.org/CodeSystem/observation-category",
                "code": "vital-signs"
              }
            ]
          }
        ],
        "status": "final",
        "code": {
          "coding": [
            {
              "code": "2710-2",
              "system": "http://loinc.org",
              "display": "OXYGEN SATURATION"
            }
          ]
        },
        "effectiveDateTime": "2014-05-20T19:36:05-05:00",
        "valueQuantity": {
          "value": 98,
          "unit": "%"
        },
        "subject": {
          "reference": "Patient/f238f1ae-2f55-cd21-5c90-5e68a10af8ce"
        }
      },
      "request": {
        "method": "PUT",
        "url": "Observation/5a2fdf42-c9cd-7938-6f1e-faceebac6f1c"
      }
    },
    {
      "fullUrl": "urn:uuid:49200334-0c15-5a04-bf2c-b96a087ec490",
      "resource": {
        "resourceType": "CarePlan",
        "id": "49200334-0c15-5a04-bf2c-b96a087ec490",
        "status": "unknown",
        "intent": "proposal",
        "subject": {
          "reference": "Patient/f238f1ae-2f55-cd21-5c90-5e68a10af8ce"
        },
        "activity": [
          {
            "detail": {
              "kind": "Task",
              "code": {
                "coding": [
                  {
                    "code": "409524006",
                    "system": "http://snomed.info/sct",
                    "display": "Airborne precautions (procedure)"
                  }
                ]
              },
              "status": "scheduled",
              "scheduledString": "2020-11-08"
            }
          },
          {
            "reference": {
              "reference": "ServiceRequest/c85c8602-76f8-1866-3bb7-20be7950ef7a"
            }
          },
          {
            "reference": {
              "reference": "ServiceRequest/224b95cc-df73-aee0-4522-b6ac683ea13b"
            }
          },
          {
            "reference": {
              "reference": "ServiceRequest/5b68e715-e34e-01cc-7c5e-d7c43f1484e7"
            }
          }
        ]
      },
      "request": {
        "method": "PUT",
        "url": "CarePlan/49200334-0c15-5a04-bf2c-b96a087ec490"
      }
    },
    {
      "fullUrl": "urn:uuid:c85c8602-76f8-1866-3bb7-20be7950ef7a",
      "resource": {
        "resourceType": "ServiceRequest",
        "id": "c85c8602-76f8-1866-3bb7-20be7950ef7a",
        "identifier": [
          {
            "system": "urn:ietf:rfc:3986",
            "value": "urn:uuid:b52bee94-c34b-4e2c-8c15-5ad9d6def205"
          }
        ],
        "status": "active",
        "code": {
          "coding": [
            {
              "code": "80825-3",
              "system": "http://loinc.org",
              "display": "Zika virus envelope (E) gene [Presence] in Serum by Probe and target amplification method"
            }
          ]
        },
        "occurrenceDateTime": "2020-11-08",
        "subject": {
          "reference": "Patient/f238f1ae-2f55-cd21-5c90-5e68a10af8ce"
        }
      },
      "request": {
        "method": "PUT",
        "url": "ServiceRequest/c85c8602-76f8-1866-3bb7-20be7950ef7a"
      }
    },
    {
      "fullUrl": "urn:uuid:224b95cc-df73-aee0-4522-b6ac683ea13b",
      "resource": {
        "resourceType": "ServiceRequest",
        "id": "224b95cc-df73-aee0-4522-b6ac683ea13b",
        "identifier": [
          {
            "system": "urn:ietf:rfc:3986",
            "value": "urn:uuid:9a6d1bac-17d3-4195-89c4-1121bc809b5a"
          }
        ],
        "status": "active",
        "code": {
          "coding": [
            {
              "code": "233573008",
              "system": "http://snomed.info/sct",
              "display": "Extracorporeal membrane oxygenation (procedure)"
            }
          ]
        },
        "occurrenceDateTime": "2020-11-08",
        "subject": {
          "reference": "Patient/f238f1ae-2f55-cd21-5c90-5e68a10af8ce"
        }
      },
      "request": {
        "method": "PUT",
        "url": "ServiceRequest/224b95cc-df73-aee0-4522-b6ac683ea13b"
      }
    },
    {
      "fullUrl": "urn:uuid:5b68e715-e34e-01cc-7c5e-d7c43f1484e7",
      "resource": {
        "resourceType": "ServiceRequest",
        "id": "5b68e715-e34e-01cc-7c5e-d7c43f1484e7",
        "identifier": [
          {
            "system": "urn:ietf:rfc:3986",
            "value": "urn:uuid:b52bee94-c34b-4e2c-8c15-5ad9d6def204"
          }
        ],
        "status": "active",
        "code": {
          "coding": [
            {
              "code": "385857005",
              "system": "http://snomed.info/sct",
              "display": "Ventilator care and adjustment (regime/therapy)"
            }
          ]
        },
        "occurrenceDateTime": "2020-11-08",
        "subject": {
          "reference": "Patient/f238f1ae-2f55-cd21-5c90-5e68a10af8ce"
        }
      },
      "request": {
        "method": "PUT",
        "url": "ServiceRequest/5b68e715-e34e-01cc-7c5e-d7c43f1484e7"
      }
    },
    {
      "fullUrl": "urn:uuid:d409ccf8-ab6a-5edf-f64e-ad74e31b74ba",
      "resource": {
        "resourceType": "Procedure",
        "id": "d409ccf8-ab6a-5edf-f64e-ad74e31b74ba",
        "meta": {
          "profile": [
            "http://hl7.org/fhir/us/core/StructureDefinition/us-core-procedure"
          ]
        },
        "identifier": [
          {
            "system": "urn:ietf:rfc:3986",
            "value": "urn:uuid:d68b7e32-7810-4f5b-9cc2-acd54b0fd85d"
          }
        ],
        "status": "completed",
        "code": {
          "coding": [
            {
              "code": "73761001",
              "system": "http://snomed.info/sct",
              "display": "Colonoscopy"
            }
          ]
        },
        "performedPeriod": {
          "start": "2020-11-15T11:10:00",
          "end": "2020-11-15T15:14:00"
        },
        "extension": [
          {
            "url": "specimen",
            "valueCodeableConcept": {
              "coding": [
                {
                  "code": "309266009",
                  "system": "http://snomed.info/sct",
                  "display": "anal polyp"
                }
              ]
            }
          },
          {
            "url": "specimen",
            "valueCodeableConcept": {
              "coding": [
                {
                  "code": "57259009",
                  "system": "http://snomed.info/sct",
                  "display": "bile duct"
                }
              ]
            }
          },
          {
            "url": "medicationAdministration",
            "valueReference": {
              "reference": "MedicationAdministration/04117137-af0d-8f70-177c-01b862866ed2"
            }
          }
        ],
        "subject": {
          "reference": "Patient/f238f1ae-2f55-cd21-5c90-5e68a10af8ce"
        },
        "usedReference": [
          {
            "reference": "Device/1c4fb2b0-801a-f762-f367-d9f03280ea97"
          }
        ],
        "location": {
          "reference": "Location/7df7cf78-ecc5-75ec-0746-e14deee862a3"
        }
      },
      "request": {
        "method": "PUT",
        "url": "Procedure/d409ccf8-ab6a-5edf-f64e-ad74e31b74ba"
      }
    },
    {
      "fullUrl": "urn:uuid:1c4fb2b0-801a-f762-f367-d9f03280ea97",
      "resource": {
        "resourceType": "Device",
        "id": "1c4fb2b0-801a-f762-f367-d9f03280ea97",
        "identifier": [
          {
            "system": "urn:oid:2.16.840.1.113883.3.3719",
            "value": "(01)51022222233336(11)141231(17)150707(10)A213B1(21)1234",
            "assigner": {
              "display": "FDA"
            }
          }
        ],
        "type": {
          "coding": [
            {
              "code": "90412006",
              "system": "http://snomed.info/sct",
              "display": "Colonoscope"
            }
          ]
        }
      },
      "request": {
        "method": "PUT",
        "url": "Device/1c4fb2b0-801a-f762-f367-d9f03280ea97"
      }
    },
    {
      "fullUrl": "urn:uuid:7df7cf78-ecc5-75ec-0746-e14deee862a3",
      "resource": {
        "resourceType": "Location",
        "id": "7df7cf78-ecc5-75ec-0746-e14deee862a3",
        "name": "Community Health and Hospitals",
        "address": {
          "line": [
            "1002 Healthcare Drive"
          ],
          "city": "Ann Arbor",
          "state": "MI",
          "country": "US",
          "postalCode": "99999"
        },
        "telecom": [
          {
            "system": "phone",
            "value": "+1(555)555-5000",
            "use": "work"
          }
        ],
        "type": [
          {
            "coding": [
              {
                "code": "1160-1",
                "system": "urn:oid:2.16.840.1.113883.6.259",
                "display": "Community Health and Hospitals"
              }
            ]
          }
        ]
      },
      "request": {
        "method": "PUT",
        "url": "Location/7df7cf78-ecc5-75ec-0746-e14deee862a3"
      }
    },
    {
      "fullUrl": "urn:uuid:04117137-af0d-8f70-177c-01b862866ed2",
      "resource": {
        "resourceType": "MedicationAdministration",
        "id": "04117137-af0d-8f70-177c-01b862866ed2",
        "identifier": [
          {
            "system": "urn:ietf:rfc:3986",
            "value": "urn:uuid:6c844c75-aa34-411c-b7bd-5e4a9f206e29"
          }
        ],
        "status": "in-progress",
        "effectivePeriod": {
          "start": "2012-03-18"
        },
        "dosage": {
          "route": {
            "coding": [
              {
                "code": "C38288",
                "system": "urn:oid:2.16.840.1.113883.3.26.1.1",
                "display": "ORAL"
              }
            ]
          },
          "dose": {
            "value": 1
          },
          "rateQuantity": {
            "value": 12,
            "unit": "h"
          }
        },
        "subject": {
          "reference": "Patient/f238f1ae-2f55-cd21-5c90-5e68a10af8ce"
        },
        "medicationReference": {
          "reference": "Medication/4361c210-6a33-4124-2863-0853046ef9a9"
        }
      },
      "request": {
        "method": "PUT",
        "url": "MedicationAdministration/04117137-af0d-8f70-177c-01b862866ed2"
      }
    },
    {
      "fullUrl": "urn:uuid:4361c210-6a33-4124-2863-0853046ef9a9",
      "resource": {
        "resourceType": "Medication",
        "id": "4361c210-6a33-4124-2863-0853046ef9a9",
        "code": {
          "coding": [
            {
              "code": "197380",
              "system": "http://www.nlm.nih.gov/research/umls/rxnorm",
              "display": "Atenolol 25 MG Oral Tablet"
            }
          ]
        }
      },
      "request": {
        "method": "PUT",
        "url": "Medication/4361c210-6a33-4124-2863-0853046ef9a9"
      }
    },
    {
      "fullUrl": "urn:uuid:44e6df0f-4e41-63ee-2bda-625369930b7c",
      "resource": {
        "resourceType": "Observation",
        "id": "44e6df0f-4e41-63ee-2bda-625369930b7c",
        "meta": {
          "profile": [
            "http://hl7.org/fhir/us/core/StructureDefinition/us-core-observationresults"
          ]
        },
        "identifier": [
          {
            "system": "urn:ietf:rfc:3986",
            "value": "urn:uuid:6dab0739-749d-4c62-8f5e-eea77a045ce8"
          }
        ],
        "category": [
          {
            "coding": [
              {
                "system": "http://terminology.hl7.org/CodeSystem/observation-category",
                "code": "procedure"
              }
            ]
          }
        ],
        "status": "final",
        "code": {
          "coding": [
            {
              "code": "274025005",
              "system": "http://snomed.info/sct",
              "display": "Colonic polypectomy"
            }
          ]
        },
        "effectiveDateTime": "2020-11-15",
        "bodySite": {
          "coding": [
            {
              "code": "416949008",
              "system": "http://snomed.info/sct",
              "display": "Abdomen and pelvis"
            }
          ]
        },
        "subject": {
          "reference": "Patient/f238f1ae-2f55-cd21-5c90-5e68a10af8ce"
        }
      },
      "request": {
        "method": "PUT",
        "url": "Observation/44e6df0f-4e41-63ee-2bda-625369930b7c"
      }
    },
    {
      "fullUrl": "urn:uuid:a09444be-e022-d5ec-3014-e337fd6dc2ef",
      "resource": {
        "resourceType": "Procedure",
        "id": "a09444be-e022-d5ec-3014-e337fd6dc2ef",
        "meta": {
          "profile": [
            "http://hl7.org/fhir/us/core/StructureDefinition/us-core-procedure"
          ]
        },
        "identifier": [
          {
            "system": "urn:ietf:rfc:3986",
            "value": "urn:uuid:609a7b3b-3bd1-4e83-b621-c4afe4a90cd7"
          }
        ],
        "status": "completed",
        "code": {
          "coding": [
            {
              "code": "233573008",
              "system": "http://snomed.info/sct",
              "display": "Extracorporeal membrane oxygenation (procedure)"
            }
          ]
        },
        "performedDateTime": "2020-11-15",
        "subject": {
          "reference": "Patient/f238f1ae-2f55-cd21-5c90-5e68a10af8ce"
        }
      },
      "request": {
        "method": "PUT",
        "url": "Procedure/a09444be-e022-d5ec-3014-e337fd6dc2ef"
      }
    },
    {
      "fullUrl": "urn:uuid:3ec04e84-6296-9381-d036-ceb7a9133b59",
      "resource": {
        "resourceType": "Procedure",
        "id": "3ec04e84-6296-9381-d036-ceb7a9133b59",
        "meta": {
          "profile": [
            "http://hl7.org/fhir/us/core/StructureDefinition/us-core-procedure"
          ]
        },
        "identifier": [
          {
            "system": "urn:ietf:rfc:3986",
            "value": "urn:uuid:941aee94-1f69-4fa8-91c8-7eee00915728"
          }
        ],
        "status": "completed",
        "code": {
          "coding": [
            {
              "code": "409524006",
              "system": "http://snomed.info/sct",
              "display": "Airborn precautions (procedure)"
            }
          ]
        },
        "performedDateTime": "2020-11-15",
        "subject": {
          "reference": "Patient/f238f1ae-2f55-cd21-5c90-5e68a10af8ce"
        }
      },
      "request": {
        "method": "PUT",
        "url": "Procedure/3ec04e84-6296-9381-d036-ceb7a9133b59"
      }
    },
    {
      "fullUrl": "urn:uuid:ecf330de-e85f-0b34-5fdd-6dccdae41d6d",
      "resource": {
        "resourceType": "Observation",
        "id": "ecf330de-e85f-0b34-5fdd-6dccdae41d6d",
        "meta": {
          "profile": [
            "http://hl7.org/fhir/us/core/StructureDefinition/us-core-observationresults"
          ]
        },
        "identifier": [
          {
            "system": "urn:ietf:rfc:3986",
            "value": "urn:uuid:e535eb92-829f-45bb-8602-a49f59bb4e2c"
          }
        ],
        "category": [
          {
            "coding": [
              {
                "system": "http://terminology.hl7.org/CodeSystem/observation-category",
                "code": "procedure"
              }
            ]
          }
        ],
        "status": "final",
        "code": {
          "coding": [
            {
              "code": "385857005",
              "system": "http://snomed.info/sct",
              "display": "Ventilator care and adjustment (regime/therapy)"
            }
          ]
        },
        "effectiveDateTime": "2020-11-15",
        "subject": {
          "reference": "Patient/f238f1ae-2f55-cd21-5c90-5e68a10af8ce"
        }
      },
      "request": {
        "method": "PUT",
        "url": "Observation/ecf330de-e85f-0b34-5fdd-6dccdae41d6d"
      }
    },
    {
      "fullUrl": "urn:uuid:007787d7-b7e4-26af-fba4-1ce1f439a903",
      "resource": {
        "resourceType": "Immunization",
        "id": "007787d7-b7e4-26af-fba4-1ce1f439a903",
        "identifier": [
          {
            "system": "urn:oid:00000000-5CF3-EC63-0513-4A4838595787",
            "value": "11369-6_3-1_1.3.6.1.4.1.22812.11.2016.163.1_14168"
          }
        ],
        "occurrenceDateTime": "2020-11-07",
        "vaccineCode": {
          "coding": [
            {
              "code": "106",
              "system": "urn:oid:2.16.840.1.113883.12.292",
              "display": "diphtheria, tetanus toxoids and acellular pertussis vaccine, 5 pertussis antigens"
            }
          ]
        },
        "status": "completed",
        "primarySource": true,
        "patient": {
          "reference": "Patient/f238f1ae-2f55-cd21-5c90-5e68a10af8ce"
        }
      },
      "request": {
        "method": "PUT",
        "url": "Immunization/007787d7-b7e4-26af-fba4-1ce1f439a903"
      }
    },
    {
      "fullUrl": "urn:uuid:3a0ef01d-9da9-63dc-e03b-bdffa3ee0b1d",
      "resource": {
        "resourceType": "Immunization",
        "id": "3a0ef01d-9da9-63dc-e03b-bdffa3ee0b1d",
        "identifier": [
          {
            "system": "urn:oid:00000000-5CF3-EC63-0513-4A4838595787",
            "value": "11369-6_2-1_1.3.6.1.4.1.22812.11.2016.163.1_14168"
          }
        ],
        "occurrenceDateTime": "2020-11-07",
        "vaccineCode": {
          "coding": [
            {
              "code": "24",
              "system": "urn:oid:2.16.840.1.113883.12.292",
              "display": "anthrax vaccine"
            }
          ]
        },
        "status": "completed",
        "primarySource": true,
        "patient": {
          "reference": "Patient/f238f1ae-2f55-cd21-5c90-5e68a10af8ce"
        }
      },
      "request": {
        "method": "PUT",
        "url": "Immunization/3a0ef01d-9da9-63dc-e03b-bdffa3ee0b1d"
      }
    },
    {
      "fullUrl": "urn:uuid:26d05bcc-1b0f-fc8a-a85e-4c6c6512478f",
      "resource": {
        "resourceType": "Observation",
        "id": "26d05bcc-1b0f-fc8a-a85e-4c6c6512478f",
        "meta": {
          "profile": [
            "http://hl7.org/fhir/us/ecr/StructureDefinition/us-ph-emergency-outbreak-information"
          ]
        },
        "identifier": [
          {
            "system": "urn:ietf:rfc:3986",
            "value": "urn:uuid:ab1791b0-5c71-11db-b0de-0800200c9a54"
          }
        ],
        "status": "final",
        "code": {
          "coding": [
            {
              "display": "Employee desk distance from mail sorter"
            }
          ],
          "text": "Employee desk distance from mail sorter"
        },
        "subject": {
          "reference": "Patient/f238f1ae-2f55-cd21-5c90-5e68a10af8ce"
        },
        "valueQuantity": {
          "value": 2,
          "unit": "m"
        },
        "effectivePeriod": {
          "start": "2020-11-01"
        }
      },
      "request": {
        "method": "PUT",
        "url": "Observation/26d05bcc-1b0f-fc8a-a85e-4c6c6512478f"
      }
    }
  ]
}
