{
  "resourceType": "Bundle",
  "type": "document",
  "meta": {
    "profile": [
      "http://hl7.org/fhir/us/ecr/StructureDefinition/eicr-document-bundle"
    ]
  },
  "id": "1902575681659620",
  "identifier": {
    "system": "urn:oid:1.2.840.113619.21.1.139060385287897942.5.3",
    "value": "1902575681659620"
  },
  "timestamp": "2020-04-15T14:52:59-05:00",
  "entry": [
    {
      "fullUrl": "urn:uuid:12e53284-c739-8c6d-ef72-09b2bc0b1aa1",
      "resource": {
        "resourceType": "Composition",
        "id": "12e53284-c739-8c6d-ef72-09b2bc0b1aa1",
        "meta": {
          "profile": [
            "http://hl7.org/fhir/us/ecr/StructureDefinition/eicr-composition"
          ]
        },
        "identifier": {
          "use": "official",
          "type": {
            "coding": [
              {
                "code": "55751-2",
                "system": "http://loinc.org",
                "display": "Public health Case report"
              }
            ]
          }
        },
        "extension": [
          {
            "url": "http://hl7.org/fhir/StructureDefinition/composition-clinicaldocument-versionNumber"
          },
          {
            "url": "https://www.hl7.org/implement/standards/product_brief.cfm?product_id=436",
            "valueString": "2016-12-01"
          }
        ],
        "status": "final",
        "type": {
          "coding": [
            {
              "code": "55751-2",
              "system": "http://loinc.org",
              "display": "Public health Case report"
            }
          ]
        },
        "date": "2020-04-15T14:52:59-05:00",
        "title": "Initial Public Health Case Report",
        "confidentiality": "N",
        "event": [
          {
            "period": {
              "start": "2020-04-15T14:52:59-05:00"
            }
          }
        ],
        "section": [
          {
            "id": "599e80d1-dd10-a8db-00dd-5d98517a7f7a",
            "title": "HISTORY OF PRESENT ILLNESS",
            "text": {
              "status": "generated",
              "div": "<div xmlns=\"http://www.w3.org/1999/xhtml\"><p>No Information Available</p></div>"
            },
            "code": {
              "coding": [
                {
                  "code": "10164-2",
                  "system": "http://loinc.org",
                  "display": "History of Present illness Narrative"
                }
              ]
            },
            "mode": "snapshot"
          },
          {
            "id": "557080b5-cbf5-d209-abfc-400ca60fae86",
            "title": "REASON FOR VISIT",
            "text": {
              "status": "generated",
              "div": "<div xmlns=\"http://www.w3.org/1999/xhtml\"><p>No Information Available</p></div>"
            },
            "code": {
              "coding": [
                {
                  "code": "29299-5",
                  "system": "http://loinc.org",
                  "display": "Reason for visit Narrative"
                }
              ]
            },
            "mode": "snapshot"
          },
          {
            "id": "52ef27c7-0c59-eae8-5c4c-4912a793d7e0",
            "title": "SOCIAL HISTORY",
            "text": {
              "status": "generated",
              "div": "<div xmlns=\"http://www.w3.org/1999/xhtml\"><p>No Information Available</p></div>"
            },
            "code": {
              "coding": [
                {
                  "code": "29762-2",
                  "system": "http://loinc.org",
                  "display": "Social history note"
                }
              ]
            },
            "mode": "snapshot"
          },
          {
            "id": "79eccd17-6758-313d-b1f2-a825ac811c25",
            "title": "ENCOUNTERS",
            "text": {
              "status": "generated",
              "div": "<div xmlns=\"http://www.w3.org/1999/xhtml\"><table><thead><tr><th>Date</th><th>Type</th><th>Provider</th><th>Location</th><th>Encounter Diagnosis</th></tr></thead><tbody><tr id=\"d55914e13-1.2.840.113619.21.1.139060385287897942.10.1586980380235.27455\"><td>2020/02/06 - 2020/02/06</td><td>Office Visit</td><td><ul><li>Admin Alliance </li></ul></td><td>Near North Health Service Corporation</td><td>UNK</td></tr><tr id=\"d55914e92-1.2.840.113619.21.1.139060385287897942.10.1586980380235.27455\"><td>2020/01/28 - 2020/01/28</td><td>Office Visit</td><td><ul><li>Fredrick Reid </li></ul></td><td>Komed Holman Health Center</td><td>UNK</td></tr><tr id=\"d55914e171-1.2.840.113619.21.1.139060385287897942.10.1586980380235.27455\"><td>2019/10/23 - 2019/10/23</td><td>Internal Correspondence</td><td><ul><li>Elizabeth Herzan-Taylor </li></ul></td><td>Komed Holman Health Center</td><td>UNK</td></tr><tr id=\"d55914e253-1.2.840.113619.21.1.139060385287897942.10.1586980380235.27455\"><td>2019/10/23 - 2019/10/23</td><td>Internal Correspondence</td><td><ul><li>Elizabeth Herzan-Taylor </li></ul></td><td>Komed Holman Health Center</td><td>UNK</td></tr><tr id=\"d55914e335-1.2.840.113619.21.1.139060385287897942.10.1586980380235.27455\"><td>2019/10/01 - 2019/10/01</td><td>Office Visit</td><td><ul><li>Admin Alliance </li></ul></td><td>Louise Landau Health Center</td><td>UNK</td></tr><tr id=\"d55914e417-1.2.840.113619.21.1.139060385287897942.10.1586980380235.27455\"><td>2019/10/01 - 2019/10/01</td><td>Lab Report</td><td><ul><li>Timothy Long </li><li>Admin Alliance </li></ul></td><td>Komed Holman Health Center</td><td>UNK</td></tr><tr id=\"d55914e506-1.2.840.113619.21.1.139060385287897942.10.1586980380235.27455\"><td>2019/09/08 - 2019/09/08</td><td>NowPow</td><td><ul><li>Care Coordination Desktop </li><li>LinkLogic </li></ul></td><td>Near North Health Service Corporation</td><td>UNK</td></tr><tr id=\"d55914e594-1.2.840.113619.21.1.139060385287897942.10.1586980380235.27455\"><td>2019/09/17 - 2019/09/17</td><td>Internal Correspondence</td><td><ul><li>Elizabeth Herzan-Taylor </li></ul></td><td>Reavis School-based Health Center</td><td>UNK</td></tr><tr id=\"d55914e676-1.2.840.113619.21.1.139060385287897942.10.1586980380235.27455\"><td>2019/09/17 - 2019/09/17</td><td>Letter</td><td><ul><li>Elizabeth Herzan-Taylor </li></ul></td><td>Reavis School-based Health Center</td><td>UNK</td></tr><tr id=\"d55914e758-1.2.840.113619.21.1.139060385287897942.10.1586980380235.27455\"><td>2019/09/17 - 2019/09/17</td><td>Letter</td><td><ul><li>Elizabeth Herzan-Taylor </li></ul></td><td>Reavis School-based Health Center</td><td>UNK</td></tr><tr id=\"d55914e840-1.2.840.113619.21.1.139060385287897942.10.1586980380235.27455\"><td>2019/09/13 - 2019/09/13</td><td>Letter</td><td><ul><li>Rhonda Greyer </li></ul></td><td>Sunnyside Health Center</td><td>UNK</td></tr><tr id=\"d55914e922-1.2.840.113619.21.1.139060385287897942.10.1586980380235.27455\"><td>2019/08/30 - 2019/08/30</td><td>Chart Maintenance</td><td><ul><li>Admin Alliance </li></ul></td><td>Louise Landau Health Center</td><td><ul><li>Gonorrhea, acute</li></ul></td></tr><tr id=\"d55914e1004-1.2.840.113619.21.1.139060385287897942.10.1586980380235.27455\"><td>2019/07/22 - 2019/07/22</td><td>Office Visit</td><td><ul><li>Deina Nemiary </li><li>Admin Alliance </li></ul></td><td>Winfield Moody Health Center</td><td>UNK</td></tr><tr id=\"d55914e1093-1.2.840.113619.21.1.139060385287897942.10.1586980380235.27455\"><td>2019/06/18 - 2019/06/18</td><td>Office Visit</td><td><ul><li>Admin Alliance </li></ul></td><td>Louise Landau Health Center</td><td>UNK</td></tr><tr id=\"d55914e1175-1.2.840.113619.21.1.139060385287897942.10.1586980380235.27455\"><td>2019/05/01 - 2019/05/01</td><td>Mental Health Trtmnt Prog Note</td><td><ul><li>Kristina Sorensen </li><li>Joel Carnazzo </li></ul></td><td>Komed Holman Health Center</td><td>UNK</td></tr><tr id=\"d55914e1266-1.2.840.113619.21.1.139060385287897942.10.1586980380235.27455\"><td>2019/03/14 - 2019/03/14</td><td>Walk In</td><td><ul><li>Regina Midgett </li></ul></td><td>Komed Holman Health Center</td><td>UNK</td></tr><tr id=\"d55914e1348-1.2.840.113619.21.1.139060385287897942.10.1586980380235.27455\"><td>2018/11/15 - 2018/11/15</td><td>Chart Maintenance</td><td><ul><li>Amber Lightbourne </li></ul></td><td>Winfield Moody Health Center</td><td>UNK</td></tr><tr id=\"d55914e1429-1.2.840.113619.21.1.139060385287897942.10.1586980380235.27455\"><td>2018/09/18 - 2018/09/18</td><td>Letter</td><td><ul><li>Amber Lightbourne </li></ul></td><td>Winfield Moody Health Center</td><td>UNK</td></tr><tr id=\"d55914e1511-1.2.840.113619.21.1.139060385287897942.10.1586980380235.27455\"><td>2018/09/18 - 2018/09/18</td><td>Letter</td><td><ul><li>Amber Lightbourne </li></ul></td><td>Winfield Moody Health Center</td><td>UNK</td></tr><tr id=\"d55914e1593-1.2.840.113619.21.1.139060385287897942.10.1586980380235.27455\"><td>2018/07/25 - 2018/07/25</td><td>Chart Maintenance</td><td><ul><li>Crystal Kittisopikul </li></ul></td><td>Denny Community Health Center</td><td>UNK</td></tr><tr id=\"d55914e1673-1.2.840.113619.21.1.139060385287897942.10.1586980380235.27455\"><td>2018/06/06 - 2018/06/06</td><td>Letter</td><td><ul><li>Adam Arendt </li></ul></td><td>Komed Holman Health Center</td><td>UNK</td></tr></tbody></table></div>"
            },
            "code": {
              "coding": [
                {
                  "code": "46240-8",
                  "system": "http://loinc.org",
                  "display": "History of Hospitalizations+Outpatient visits Narrative"
                }
              ]
            },
            "mode": "snapshot"
          },
          {
            "id": "0f230cca-f89a-12a7-6b7c-5b20e988a56e",
            "title": "TREATMENT PLAN",
            "text": {
              "status": "generated",
              "div": "<div xmlns=\"http://www.w3.org/1999/xhtml\"><table><thead><tr><th>Date</th><th>Name</th></tr></thead><tbody><tr><!--Planned Observation (V2)--><td>2019/06/18</td><td>A1c</td></tr><tr><!--Planned Observation (V2)--><td>2019/06/18</td><td>FIT Occult Blood, Stool Test</td></tr></tbody></table></div>"
            },
            "code": {
              "coding": [
                {
                  "code": "18776-5",
                  "system": "http://loinc.org",
                  "display": "Plan of care note"
                }
              ]
            },
            "mode": "snapshot",
            "entry": [
              {
                "reference": "CarePlan/9e9adf1a-222b-7a7a-8b50-d47644138a2c"
              }
            ]
          },
          {
            "id": "db319c7e-c865-e5bb-2929-dc65b62946f3",
            "title": "MEDICATIONS ADMINISTERED",
            "text": {
              "status": "generated",
              "div": "<div xmlns=\"http://www.w3.org/1999/xhtml\">No Known MEDICATIONS ADMINISTERED</div>"
            },
            "code": {
              "coding": [
                {
                  "code": "29549-3",
                  "system": "http://loinc.org",
                  "display": "Medication administered Narrative"
                }
              ]
            },
            "mode": "snapshot",
            "entry": [
              {
                "reference": "MedicationAdministration/356ab391-204b-b035-6f34-0e9f3b979817"
              }
            ]
          },
          {
            "id": "b9fd6991-1af2-13d3-57e1-321e9b8ee716",
            "title": "HISTORY OF MEDICATION USE",
            "text": {
              "status": "generated",
              "div": "<div xmlns=\"http://www.w3.org/1999/xhtml\"><table><thead><tr><th>Medication</th><th>Status</th><th>Instructions</th><th>Dates</th><th>Provider</th><th>Indications</th><th>Comments</th></tr></thead><tbody><tr id=\"d55886e18-1.2.840.113619.21.1.139060385287897942.10.1586980380204.325990\"><td id=\"d55886e80\">BUSPIRONE HCL 10 MG ORAL TABLET</td><td>active</td><td id=\"d55886e83\">take</td><td>2019/07/22</td><td>Deina Nemiary </td><td /><td /></tr><tr id=\"d55886e99-1.2.840.113619.21.1.139060385287897942.10.1586980380204.325990\"><td id=\"d55886e158\">LISINOPRIL 10 MG ORAL TABLET</td><td>active</td><td id=\"d55886e161\">1 by mouth every day</td><td>2018/11/15</td><td>Amber Lightbourne </td><td /><td /></tr></tbody></table></div>"
            },
            "code": {
              "coding": [
                {
                  "code": "10160-0",
                  "system": "http://loinc.org",
                  "display": "History of Medication use Narrative"
                }
              ]
            },
            "mode": "snapshot"
          },
          {
            "id": "305dac8d-d8ca-f439-977f-7c5d62c39d4e",
            "title": "HISTORY OF IMMUNIZATIONS",
            "text": {
              "status": "generated",
              "div": "<div xmlns=\"http://www.w3.org/1999/xhtml\"><p>No Information Available</p></div>"
            },
            "code": {
              "coding": [
                {
                  "code": "11369-6",
                  "system": "http://loinc.org",
                  "display": "History of Immunization note"
                }
              ]
            },
            "mode": "snapshot"
          },
          {
            "id": "226255f5-9c3a-7792-51f3-ad1064674738",
            "title": "PROBLEMS",
            "text": {
              "status": "generated",
              "div": "<div xmlns=\"http://www.w3.org/1999/xhtml\"><table><thead><tr><th>Condition</th><th>Status</th><th>Date</th><th>Provider</th><th>Notes</th></tr></thead><tbody><tr id=\"d55900e13-1.2.840.113619.21.1.139060385287897942.10.1586980380423.526755\"><td>Gonorrhea, acute</td><td>active</td><td>2019/08/30</td><td>Admin Alliance </td><td /></tr></tbody></table></div>"
            },
            "code": {
              "coding": [
                {
                  "code": "11450-4",
                  "system": "http://loinc.org",
                  "display": "Problem list - Reported"
                }
              ]
            },
            "mode": "snapshot",
            "entry": [
              {
                "display": "Problem - ",
                "reference": "Condition/c77e90a3-c881-8e38-6f18-0fca7db20d56"
              }
            ]
          },
          {
            "id": "5f5d4b19-7360-10c3-da39-abebed64d650",
            "title": "RESULTS",
            "text": {
              "status": "generated",
              "div": "<div xmlns=\"http://www.w3.org/1999/xhtml\"><table><thead><tr><th>Date</th><th>Observation</th><th>Value</th><th>Provider</th><th>Reference Range</th><th>Interpretation</th><th>Location</th></tr></thead><tbody><tr id=\"d55917e13-1.2.840.113619.21.1.139060385287897942.10.1586980381470.134614\"><td>2019/09/27</td><td>chlamydia, nucleic acid amplification test (NAAT) result, urethra culture</td><td>NOT DETECTED</td><td>Admin Alliance </td><td /><td /><td /></tr><tr id=\"d55917e100-1.2.840.113619.21.1.139060385287897942.10.1586980381470.134614\"><td>\"</td><td>chlamydia, nucleic acid amplification test (NAAT) result, throat culture</td><td>NOT DETECTED</td><td>Admin Alliance </td><td /><td /><td /></tr><tr id=\"d55917e187-1.2.840.113619.21.1.139060385287897942.10.1586980381470.134614\"><td>\"</td><td>Chlamydia Rectal Nucleic acid amplification test (NAAT)</td><td>NOT DETECTED</td><td>Admin Alliance </td><td /><td /><td /></tr><tr id=\"d55917e274-1.2.840.113619.21.1.139060385287897942.10.1586980381470.134614\"><td>\"</td><td>MICROBE IDENTIFICATION</td><td>Negative</td><td>Admin Alliance </td><td /><td /><td /></tr><tr id=\"d55917e361-1.2.840.113619.21.1.139060385287897942.10.1586980381470.134614\"><td>\"</td><td>Neisseria gonorrhoeae, urethral culture</td><td>DETECTED</td><td>Admin Alliance </td><td /><td /><td /></tr><tr id=\"d55917e452-1.2.840.113619.21.1.139060385287897942.10.1586980381470.134614\"><td>\"</td><td>Neisseria gonorrhoeae, throat culture</td><td>DETECTED</td><td>Admin Alliance </td><td /><td /><td /></tr><tr id=\"d55917e540-1.2.840.113619.21.1.139060385287897942.10.1586980381470.134614\"><td>\"</td><td>Gonorrhea Culture Rectum</td><td>NOT DETECTED</td><td>Admin Alliance </td><td /><td /><td /></tr><tr id=\"d55917e627-1.2.840.113619.21.1.139060385287897942.10.1586980381470.134614\"><td>\"</td><td>Neisseria gonorrhoeae DNA probe</td><td>Positive</td><td>Admin Alliance </td><td /><td /><td /></tr></tbody></table></div>"
            },
            "code": {
              "coding": [
                {
                  "code": "30954-2",
                  "system": "http://loinc.org",
                  "display": "Relevant diagnostic tests/laboratory data note"
                }
              ]
            },
            "mode": "snapshot",
            "entry": [
              {
                "reference": "Observation/7ea37105-1ac1-cd38-764b-2e39e6e68f69",
                "display": "chlamydia, nucleic acid amplification test (NAAT) result, urethra culture"
              },
              {
                "reference": "Observation/9fe67f48-f8ad-873d-3247-608da094b936",
                "display": "chlamydia, nucleic acid amplification test (NAAT) result, throat culture"
              },
              {
                "reference": "Observation/57e614e8-359c-fa8b-2168-ec93def3e31d",
                "display": "Chlamydia Rectal Nucleic acid amplification test (NAAT)"
              },
              {
                "reference": "Observation/a7e27fda-c763-de96-d489-9375d0adad40",
                "display": "MICROBE IDENTIFICATION"
              },
              {
                "reference": "Observation/ae7dcc09-ea9b-4df9-6151-ac1313350852",
                "display": "Neisseria gonorrhoeae, urethral culture"
              },
              {
                "reference": "Observation/6ab463a2-db27-4390-2543-a664d3878d85",
                "display": "Neisseria gonorrhoeae, throat culture"
              },
              {
                "reference": "Observation/964d5fd3-14da-bb7a-3d1e-8891af5af477",
                "display": "Gonorrhea Culture Rectum"
              },
              {
                "reference": "Observation/24819ebf-d5b4-683e-0110-660edae43ea2",
                "display": "Neisseria gonorrhoeae DNA probe"
              }
            ]
          },
          {
            "code": {
              "coding": [
                {
                  "system": "http://loinc.org",
                  "code": "10154-3",
                  "display": "Chief complaint Narrative - Reported"
                }
              ]
            },
            "text": {
              "status": "empty",
              "div": "<div xmlns=\"http://www.w3.org/1999/xhtml\">No Information Available</div>"
            }
          }
        ],
        "subject": {
          "reference": "Patient/ea377416-4450-d765-db9b-56b3c15c917a"
        },
        "encounter": {
          "reference": "Encounter/bb44bb8e-af4d-7cf5-b8a0-bfed3557d83a"
        },
        "custodian": {
          "reference": "Organization/f1121cca-2fca-f2bf-c5d4-df22ebd6c14b"
        },
        "author": [
          {
            "reference": "PractitionerRole/1c74aabe-1c8b-4dc2-6ee4-fd82e9a52699"
          },
          {
            "reference": "Device/48c756a8-18ae-5310-e8d7-2de6957e99b8"
          }
        ]
      }
    },
    {
      "fullUrl": "urn:uuid:bb44bb8e-af4d-7cf5-b8a0-bfed3557d83a",
      "resource": {
        "resourceType": "Encounter",
        "id": "bb44bb8e-af4d-7cf5-b8a0-bfed3557d83a",
        "status": "unknown",
        "class": {
          "code": "PHC2237",
          "system": "urn:oid:2.16.840.1.114222.4.5.274",
          "display": "External Encounter"
        },
        "identifier": [
          {
            "extension": [
              {
                "url": "http://hl7.org/fhir/StructureDefinition/data-absent-reason",
                "valueCode": "not-applicable"
              }
            ]
          }
        ],
        "subject": {
          "reference": "Patient/ea377416-4450-d765-db9b-56b3c15c917a"
        },
        "location": [
          {
            "id": "2.16.840.1.113883.4.6",
            "location": {
              "reference": "Location/bdf4bd41-5f95-3434-7bad-c22f469af6db"
            }
          }
        ],
        "serviceProvider": {
          "reference": "Organization/42e178bb-0fd1-7329-a02e-c06b5c9782b8"
        },
        "participant": [
          {
            "type": [
              {
                "coding": [
                  {
                    "system": "http://terminology.hl7.org/CodeSystem/v3-ParticipationType",
                    "code": "ATND"
                  }
                ]
              }
            ],
            "individual": {
              "reference": "PractitionerRole/e8d30303-e0a1-2dbb-bddb-d208c95aad77"
            }
          }
        ]
      }
    },
    {
      "fullUrl": "urn:uuid:bdf4bd41-5f95-3434-7bad-c22f469af6db",
      "resource": {
        "resourceType": "Location",
        "meta": {
          "profile": [
            "http://hl7.org/fhir/us/ecr/StructureDefinition/us-ph-location"
          ]
        },
        "id": "bdf4bd41-5f95-3434-7bad-c22f469af6db",
        "identifier": [
          {
            "system": "http://hl7.org/fhir/sid/us-npi",
            "_value": {
              "extension": [
                {
                  "url": "http://hl7.org/fhir/StructureDefinition/data-absent-reason",
                  "valueCode": "not-applicable"
                }
              ]
            }
          }
        ],
        "_name": {
          "extension": [
            {
              "url": "http://hl7.org/fhir/StructureDefinition/data-absent-reason",
              "valueCode": "not-applicable"
            }
          ]
        },
        "address": {
          "_city": {
            "extension": [
              {
                "url": "http://hl7.org/fhir/StructureDefinition/data-absent-reason",
                "valueCode": "not-applicable"
              }
            ]
          },
          "_state": {
            "extension": [
              {
                "url": "http://hl7.org/fhir/StructureDefinition/data-absent-reason",
                "valueCode": "not-applicable"
              }
            ]
          }
        },
        "type": [
          {
            "coding": [
              {
                "code": "not-applicable",
                "system": "http://terminology.hl7.org/CodeSystem/data-absent-reason"
              }
            ]
          }
        ]
      }
    },
    {
      "fullUrl": "urn:uuid:42e178bb-0fd1-7329-a02e-c06b5c9782b8",
      "resource": {
        "resourceType": "Organization",
        "id": "42e178bb-0fd1-7329-a02e-c06b5c9782b8"
      }
    },
    {
      "fullUrl": "urn:uuid:e8d30303-e0a1-2dbb-bddb-d208c95aad77",
      "resource": {
        "resourceType": "Practitioner",
        "id": "e8d30303-e0a1-2dbb-bddb-d208c95aad77",
        "meta": {
          "profile": [
            "http://hl7.org/fhir/us/core/StructureDefinition/us-core-practitioner"
          ]
        },
        "extension": [
          {
            "url": "http://hl7.org/fhir/StructureDefinition/_datatype",
            "valueString": "Responsible Party"
          }
        ],
        "identifier": [
          {
            "system": "http://hl7.org/fhir/sid/us-npi",
            "_value": {
              "extension": [
                {
                  "url": "http://hl7.org/fhir/StructureDefinition/data-absent-reason",
                  "valueCode": "not-applicable"
                }
              ]
            }
          }
        ]
      }
    },
    {
      "resource": {
        "resourceType": "PractitionerRole",
        "id": "e8d30303-e0a1-2dbb-bddb-d208c95aad77",
        "practitioner": {
          "reference": "Practitioner/e8d30303-e0a1-2dbb-bddb-d208c95aad77"
        },
        "organization": {
          "reference": "Organization/43eaaf8e-f805-d37c-8e4e-77965eef87aa"
        }
      }
    },
    {
      "fullUrl": "urn:uuid:43eaaf8e-f805-d37c-8e4e-77965eef87aa",
      "resource": {
        "resourceType": "Organization",
        "id": "43eaaf8e-f805-d37c-8e4e-77965eef87aa"
      }
    },
    {
      "fullUrl": "urn:uuid:f1121cca-2fca-f2bf-c5d4-df22ebd6c14b",
      "resource": {
        "resourceType": "Organization",
        "id": "f1121cca-2fca-f2bf-c5d4-df22ebd6c14b",
        "identifier": [
          {
            "system": "urn:oid:1.2.840.113619.21.1.139060385287897942.9",
            "value": "Organization/LO-0",
            "assigner": {
              "display": " API Resource Identifier"
            }
          },
          {
            "system": "UNK",
            "value": "LO-0",
            "assigner": {
              "display": "Organization Identifier"
            }
          },
          {
            "system": "urn:oid:2.16.840.1.113883.4.2",
            "value": "363197647",
            "assigner": {
              "display": "Tax ID number"
            }
          }
        ],
        "name": "Near North Health Service Corporation",
        "address": [
          {
            "line": [
              "1276 N Clybourn"
            ],
            "city": "Chicago",
            "state": "IL ",
            "country": "USA",
            "postalCode": "60610"
          }
        ],
        "telecom": [
          {
            "system": "phone",
            "value": "3123371073",
            "use": "work"
          }
        ]
      }
    },
    {
      "fullUrl": "urn:uuid:406c3e36-d27a-041b-61a8-e29df69f50e1",
      "resource": {
        "resourceType": "Practitioner",
        "id": "406c3e36-d27a-041b-61a8-e29df69f50e1",
        "meta": {
          "profile": [
            "http://hl7.org/fhir/us/core/StructureDefinition/us-core-practitioner"
          ]
        },
        "identifier": [
          {
            "system": "urn:oid:1.2.840.113619.21.1.139060385287897942.2.2",
            "value": "1467041069000630",
            "assigner": {
              "display": " Providers by PVID"
            }
          },
          {
            "system": "urn:oid:1.2.840.113619.21.1.139060385287897942.2.1",
            "value": "365",
            "assigner": {
              "display": " Providers by DoctorFacility"
            }
          }
        ],
        "name": [
          {
            "family": "Nurse Desk",
            "given": [
              "KH WH"
            ]
          }
        ],
        "address": [
          {
            "line": [
              "Winfield Moody",
              "1276 N Clybourn"
            ],
            "city": "Chicago",
            "state": "IL",
            "postalCode": "60653"
          }
        ],
        "telecom": [
          {
            "system": "phone",
            "value": "3123371073",
            "use": "work"
          },
          {
            "system": "phone",
            "value": "3123377616",
            "use": "mobile"
          }
        ]
      }
    },
    {
      "fullUrl": "urn:uuid:01fe444a-5df3-6915-447b-5b16fe2c6872",
      "resource": {
        "resourceType": "Organization",
        "id": "01fe444a-5df3-6915-447b-5b16fe2c6872",
        "identifier": [
          {
            "system": "urn:oid:1.2.840.113619.21.1.139060385287897942.9",
            "value": "Organization/DF-76",
            "assigner": {
              "display": " API Resource Identifier"
            }
          },
          {
            "system": "UNK",
            "value": "DF-76",
            "assigner": {
              "display": "Organization Identifier"
            }
          },
          {
            "system": "http://hl7.org/fhir/sid/us-npi",
            "value": "1821079088",
            "assigner": {
              "display": "National Provider Identifier"
            }
          },
          {
            "system": "urn:oid:2.16.840.1.113883.4.2",
            "value": "363197647",
            "assigner": {
              "display": "Tax ID number"
            }
          }
        ],
        "name": "Winfield Moody Health Center",
        "address": [
          {
            "line": [
              "1276 N Clybourn"
            ],
            "city": "Chicago",
            "state": "IL ",
            "postalCode": "60610     "
          }
        ],
        "telecom": [
          {
            "system": "phone",
            "value": "3123371073     ",
            "use": "work"
          }
        ]
      }
    },
    {
      "resource": {
        "resourceType": "PractitionerRole",
        "id": "1c74aabe-1c8b-4dc2-6ee4-fd82e9a52699",
        "organization": {
          "reference": "Organization/01fe444a-5df3-6915-447b-5b16fe2c6872"
        },
        "practitioner": {
          "reference": "Practitioner/406c3e36-d27a-041b-61a8-e29df69f50e1"
        }
      }
    },
    {
      "fullUrl": "urn:uuid:48c756a8-18ae-5310-e8d7-2de6957e99b8",
      "resource": {
        "resourceType": "Device",
        "id": "48c756a8-18ae-5310-e8d7-2de6957e99b8",
        "identifier": [
          {
            "system": "urn:ietf:rfc:3986",
            "value": "urn:oid:1.2.840.113619.21.1.139060385287897942.11"
          }
        ],
        "manufacturer": "12.3/9.12",
        "version": [
          {
            "value": "GE Healthcare API Server"
          }
        ],
        "property": [
          {
            "type": {
              "coding": [
                {
                  "system": "http://hl7.org/fhir/device-category",
                  "code": "software",
                  "display": "software"
                }
              ]
            }
          }
        ],
        "owner": {
          "reference": "Organization/f1121cca-2fca-f2bf-c5d4-df22ebd6c14b"
        }
      }
    },
    {
      "fullUrl": "urn:uuid:ea377416-4450-d765-db9b-56b3c15c917a",
      "resource": {
        "resourceType": "Patient",
        "id": "ea377416-4450-d765-db9b-56b3c15c917a",
        "meta": {
          "profile": [
            "http://hl7.org/fhir/us/core/StructureDefinition/us-core-patient"
          ]
        },
        "identifier": [
          {
            "system": "urn:oid:1.2.840.113619.21.1.139060385287897942.2.1.1.1",
            "value": "1009843200000000"
          },
          {
            "system": "urn:oid:1.2.840.113619.21.1.139060385287897942.2.1.1.2",
            "value": "97531-ERXT999",
            "assigner": {
              "display": "GE EMR-CPS PatientId"
            }
          }
        ],
        "name": [
          {
            "use": "official",
            "family": "Test Patient",
            "given": [
              "Erx"
            ]
          }
        ],
        "birthDate": "1976-07-04",
        "deceasedBoolean": false,
        "gender": "male",
        "extension": [
          {
            "url": "http://hl7.org/fhir/us/core/StructureDefinition/us-core-race",
            "extension": [
              {
                "url": "ombCategory",
                "valueCoding": {
                  "system": "http://terminology.hl7.org/CodeSystem/v3-NullFlavor",
                  "code": "UNK",
                  "display": "Unknown"
                }
              },
              {
                "url": "text",
                "valueString": "Unknown"
              }
            ]
          },
          {
            "url": "http://hl7.org/fhir/us/core/StructureDefinition/us-core-ethnicity",
            "extension": [
              {
                "url": "ombCategory",
                "valueCoding": {
                  "system": "http://terminology.hl7.org/CodeSystem/v3-NullFlavor",
                  "code": "UNK",
                  "display": "Unknown"
                }
              },
              {
                "url": "text",
                "valueString": "Unknown"
              }
            ]
          },
          {
            "url": "http://hl7.org/fhir/us/core/StructureDefinition/us-core-birthsex",
            "valueCode": "UNK"
          }
        ],
        "address": [
          {
            "line": [
              "215 W Ohio",
              "Apt 105"
            ],
            "city": "Chicago",
            "state": "IL",
            "postalCode": "60654"
          }
        ],
        "communication": [
          {
            "language": {
              "extension": [
                {
                  "url": "http://hl7.org/fhir/StructureDefinition/data-absent-reason",
                  "valueCode": "unsupported"
                }
              ],
              "text": "dz"
            },
            "preferred": true
          }
        ]
      }
    },
    {
      "fullUrl": "urn:uuid:356ab391-204b-b035-6f34-0e9f3b979817",
      "resource": {
        "resourceType": "MedicationAdministration",
        "id": "356ab391-204b-b035-6f34-0e9f3b979817",
        "identifier": [
          {
            "system": "urn:ietf:rfc:3986",
            "value": "urn:oid:1.2.840.113619.21.1.139060385287897942.10.1586980379985.507047"
          }
        ],
        "status": "in-progress",
        "effectivePeriod": {
          "start": "1970-01-01T00:00:00",
          "end": "2020-04-15T14:52:59.985-05:00"
        },
        "subject": {
          "reference": "Patient/ea377416-4450-d765-db9b-56b3c15c917a"
        },
        "medicationReference": {
          "reference": "Medication/cfbe2a1a-c8da-ec09-57cb-0f4fdfc02412"
        }
      }
    },
    {
      "fullUrl": "urn:uuid:cfbe2a1a-c8da-ec09-57cb-0f4fdfc02412",
      "resource": {
        "resourceType": "Medication",
        "id": "cfbe2a1a-c8da-ec09-57cb-0f4fdfc02412",
        "code": {
          "coding": [
            {
              "system": "http://www.nlm.nih.gov/research/umls/rxnorm"
            },
            {
              "code": "410942007",
              "system": "http://snomed.info/sct",
              "display": "Drug or medicament"
            }
          ]
        }
      }
    },
    {
      "fullUrl": "urn:uuid:d4e3bf84-beb1-6b15-f64e-328ab96b5c23",
      "resource": {
        "resourceType": "MedicationStatement",
        "id": "d4e3bf84-beb1-6b15-f64e-328ab96b5c23",
        "identifier": [
          {
            "system": "urn:oid:1.2.840.113619.21.1.139060385287897942.9",
            "value": "MedicationStatement/1879409528911590",
            "assigner": {
              "display": " API Resource Identifier"
            }
          }
        ],
        "status": "active",
        "effectivePeriod": {
          "start": "2019-07-22T00:00:00-05:00"
        },
        "subject": {
          "reference": "Patient/ea377416-4450-d765-db9b-56b3c15c917a"
        },
        "medicationReference": {
          "reference": "Medication/8ea50ec3-2528-2efc-16ee-84d008e58028"
        }
      }
    },
    {
      "fullUrl": "urn:uuid:8ea50ec3-2528-2efc-16ee-84d008e58028",
      "resource": {
        "resourceType": "Medication",
        "id": "8ea50ec3-2528-2efc-16ee-84d008e58028",
        "code": {
          "coding": [
            {
              "code": "866083",
              "system": "http://www.nlm.nih.gov/research/umls/rxnorm",
              "display": "buspirone hydrochloride 10 MG Oral Tablet"
            },
            {
              "code": "25493",
              "system": "urn:oid:2.16.840.1.113883.6.253"
            },
            {
              "code": "57200005100320",
              "system": "urn:oid:2.16.840.1.113883.6.68"
            },
            {
              "code": "3022",
              "system": "urn:oid:1.2.840.113619.21.100.12.998"
            },
            {
              "code": "10184",
              "system": "urn:oid:1.2.840.113619.21.100.12.999"
            },
            {
              "code": "00093005401",
              "system": "urn:oid:2.16.840.1.113883.6.69"
            }
          ],
          "text": "(BUSPIRONE HCL) 10 MG TABS"
        }
      }
    },
    {
      "fullUrl": "urn:uuid:5fa9f4bc-86fd-1482-603e-a74bba9c33c4",
      "resource": {
        "resourceType": "MedicationRequest",
        "id": "5fa9f4bc-86fd-1482-603e-a74bba9c33c4",
        "identifier": [
          {
            "system": "urn:oid:1.2.840.113619.21.1.139060385287897942.9",
            "value": "MedicationOrder/1879409528911620",
            "assigner": {
              "display": " API Resource Identifier"
            }
          },
          {
            "system": "UNK",
            "value": "29A08F58B2D744138EE80F70313BD34D",
            "assigner": {
              "display": "Unknown"
            }
          }
        ],
        "status": "completed",
        "intent": "order",
        "dispenseRequest": {
          "numberOfRepeatsAllowed": 1
        },
        "subject": {
          "reference": "Patient/ea377416-4450-d765-db9b-56b3c15c917a"
        },
        "medicationReference": {
          "reference": "Medication/8ea50ec3-2528-2efc-16ee-84d008e58028"
        },
        "requester": {
          "reference": "Practitioner/a6b0af6d-f143-8909-01fc-e0a006b2b20a"
        }
      }
    },
    {
      "fullUrl": "urn:uuid:a6b0af6d-f143-8909-01fc-e0a006b2b20a",
      "resource": {
        "resourceType": "Practitioner",
        "id": "a6b0af6d-f143-8909-01fc-e0a006b2b20a",
        "meta": {
          "profile": [
            "http://hl7.org/fhir/us/core/StructureDefinition/us-core-practitioner"
          ]
        },
        "identifier": [
          {
            "system": "urn:oid:1.2.840.113619.21.1.139060385287897942.2.2",
            "value": "1859041315883770",
            "assigner": {
              "display": " Providers by PVID"
            }
          },
          {
            "system": "urn:oid:1.2.840.113619.21.1.139060385287897942.2.1",
            "value": "1727",
            "assigner": {
              "display": " Providers by DoctorFacility"
            }
          },
          {
            "system": "http://hl7.org/fhir/sid/us-npi",
            "value": "1851556856",
            "assigner": {
              "display": "US National Provider Identifiers"
            }
          },
          {
            "system": "urn:oid:2.16.840.1.113883.4.2",
            "value": "363197647",
            "assigner": {
              "display": "Federal Tax Identifier"
            }
          }
        ],
        "name": [
          {
            "family": "Nemiary",
            "given": [
              "Deina"
            ]
          }
        ],
        "address": [
          {
            "line": [
              "Winfield Moody",
              "1276 N. Clybourn"
            ],
            "city": "Chicago",
            "state": "IL",
            "postalCode": "60610"
          }
        ],
        "telecom": [
          {
            "system": "phone",
            "value": "3123371073",
            "use": "work"
          },
          {
            "system": "phone",
            "value": "3123377616",
            "use": "mobile"
          }
        ]
      }
    },
    {
      "fullUrl": "urn:uuid:4e8d9868-1eb8-4409-6933-2e9ba8025068",
      "resource": {
        "resourceType": "MedicationStatement",
        "id": "4e8d9868-1eb8-4409-6933-2e9ba8025068",
        "identifier": [
          {
            "system": "urn:oid:1.2.840.113619.21.1.139060385287897942.9",
            "value": "MedicationStatement/1857906925838680",
            "assigner": {
              "display": " API Resource Identifier"
            }
          }
        ],
        "status": "active",
        "dosage": [
          {
            "doseAndRate": [
              {
                "doseQuantity": {
                  "value": 1,
                  "unit": "{Tablet}"
                }
              }
            ]
          }
        ],
        "subject": {
          "reference": "Patient/ea377416-4450-d765-db9b-56b3c15c917a"
        },
        "medicationReference": {
          "reference": "Medication/5184d9e6-fb8f-8b98-185c-e1bd2823fd24"
        }
      }
    },
    {
      "fullUrl": "urn:uuid:5184d9e6-fb8f-8b98-185c-e1bd2823fd24",
      "resource": {
        "resourceType": "Medication",
        "id": "5184d9e6-fb8f-8b98-185c-e1bd2823fd24",
        "code": {
          "coding": [
            {
              "code": "314076",
              "system": "http://www.nlm.nih.gov/research/umls/rxnorm",
              "display": "lisinopril 10 MG Oral Tablet"
            },
            {
              "code": "28360",
              "system": "urn:oid:2.16.840.1.113883.6.253"
            },
            {
              "code": "36100030000310",
              "system": "urn:oid:2.16.840.1.113883.6.68"
            },
            {
              "code": "4643",
              "system": "urn:oid:1.2.840.113619.21.100.12.998"
            },
            {
              "code": "8102",
              "system": "urn:oid:1.2.840.113619.21.100.12.999"
            },
            {
              "code": "00143126701",
              "system": "urn:oid:2.16.840.1.113883.6.69"
            }
          ],
          "text": "(LISINOPRIL) 10 MG TABS"
        }
      }
    },
    {
      "fullUrl": "urn:uuid:7f271226-7531-ae46-4dd4-4bb974cf6646",
      "resource": {
        "resourceType": "MedicationRequest",
        "id": "7f271226-7531-ae46-4dd4-4bb974cf6646",
        "identifier": [
          {
            "system": "urn:oid:1.2.840.113619.21.1.139060385287897942.9",
            "value": "MedicationOrder/1857906925838710",
            "assigner": {
              "display": " API Resource Identifier"
            }
          },
          {
            "system": "UNK",
            "value": "4F7AB87322D046A8B00C85A933D39C11",
            "assigner": {
              "display": "Unknown"
            }
          }
        ],
        "status": "completed",
        "intent": "order",
        "authoredOn": "2018-11-15T13:16:50.637-06:00",
        "dispenseRequest": {
          "numberOfRepeatsAllowed": 0
        },
        "subject": {
          "reference": "Patient/ea377416-4450-d765-db9b-56b3c15c917a"
        },
        "medicationReference": {
          "reference": "Medication/5184d9e6-fb8f-8b98-185c-e1bd2823fd24"
        },
        "requester": {
          "reference": "Practitioner/8ed57322-ace2-52ab-fc67-a15e99c4854f"
        }
      }
    },
    {
      "fullUrl": "urn:uuid:8ed57322-ace2-52ab-fc67-a15e99c4854f",
      "resource": {
        "resourceType": "Practitioner",
        "id": "8ed57322-ace2-52ab-fc67-a15e99c4854f",
        "meta": {
          "profile": [
            "http://hl7.org/fhir/us/core/StructureDefinition/us-core-practitioner"
          ]
        },
        "identifier": [
          {
            "system": "urn:oid:1.2.840.113619.21.1.139060385287897942.2.2",
            "value": "1702388393708070",
            "assigner": {
              "display": " Providers by PVID"
            }
          },
          {
            "system": "urn:oid:1.2.840.113619.21.1.139060385287897942.2.1",
            "value": "972",
            "assigner": {
              "display": " Providers by DoctorFacility"
            }
          },
          {
            "system": "http://hl7.org/fhir/sid/us-npi",
            "value": "1437242385",
            "assigner": {
              "display": "US National Provider Identifiers"
            }
          },
          {
            "system": "urn:oid:2.16.840.1.113883.4.2",
            "value": "363197647",
            "assigner": {
              "display": "Federal Tax Identifier"
            }
          }
        ],
        "name": [
          {
            "family": "Cox-Batson",
            "given": [
              "Stephanie"
            ]
          }
        ],
        "address": [
          {
            "line": [
              "Winfield Moody",
              "1276 N. Clybourn"
            ],
            "city": "Chicago",
            "state": "IL",
            "postalCode": "60610"
          }
        ],
        "telecom": [
          {
            "system": "phone",
            "value": "3123371073",
            "use": "work"
          },
          {
            "system": "phone",
            "value": "3123377616",
            "use": "mobile"
          }
        ]
      }
    },
    {
      "fullUrl": "urn:uuid:c77e90a3-c881-8e38-6f18-0fca7db20d56",
      "resource": {
        "resourceType": "Condition",
        "id": "c77e90a3-c881-8e38-6f18-0fca7db20d56",
        "identifier": [
          {
            "system": "urn:oid:1.2.840.113619.21.1.139060385287897942.9",
            "value": "Condition/1882804434611020",
            "assigner": {
              "display": "31913-41995-12761042 API Resource Identifier"
            }
          }
        ],
        "category": [
          {
            "coding": [
              {
                "code": "problem-item-list",
                "display": "Problem List Item",
                "system": "http://hl7.org/fhir/us/core/ValueSet/us-core-condition-category"
              }
            ]
          }
        ],
        "code": {
          "coding": [
            {
              "code": "15628003",
              "system": "http://snomed.info/sct",
              "display": "Gonorrhea"
            },
            {
              "code": "A54.9",
              "system": "urn:oid:2.16.840.1.113883.6.90"
            },
            {
              "code": "098.0",
              "system": "urn:oid:2.16.840.1.113883.6.103"
            },
            {
              "code": "ICD-098.0",
              "system": "urn:oid:1.2.840.113619.21.1.139060385287897942.2.1.1.4"
            }
          ],
          "text": "Gonorrhea, acute"
        },
        "onsetDateTime": "2019-08-30T00:00:00-05:00",
        "subject": {
          "reference": "Patient/ea377416-4450-d765-db9b-56b3c15c917a"
        }
      }
    },
    {
      "fullUrl": "urn:uuid:67e2b289-1fab-a613-ddb9-45c38a666738",
      "resource": {
        "resourceType": "DiagnosticReport",
        "id": "67e2b289-1fab-a613-ddb9-45c38a666738",
        "identifier": [
          {
            "system": "urn:oid:1.2.840.113619.21.1.139060385287897942.9",
            "value": "Observation/1885543262278850",
            "assigner": {
              "display": "31913-41995-12761042 API Resource Identifier"
            }
          }
        ],
        "status": "final",
        "code": {
          "coding": [
            {
              "code": "30954-2",
              "system": "http://loinc.org",
              "display": "Relevant diagnostic tests/laboratory data note"
            }
          ]
        },
        "subject": {
          "reference": "Patient/ea377416-4450-d765-db9b-56b3c15c917a"
        },
        "result": [
          {
            "reference": "Observation/7ea37105-1ac1-cd38-764b-2e39e6e68f69"
          },
          {
            "reference": "Observation/9fe67f48-f8ad-873d-3247-608da094b936"
          },
          {
            "reference": "Observation/57e614e8-359c-fa8b-2168-ec93def3e31d"
          },
          {
            "reference": "Observation/a7e27fda-c763-de96-d489-9375d0adad40"
          },
          {
            "reference": "Observation/ae7dcc09-ea9b-4df9-6151-ac1313350852"
          },
          {
            "reference": "Observation/6ab463a2-db27-4390-2543-a664d3878d85"
          },
          {
            "reference": "Observation/964d5fd3-14da-bb7a-3d1e-8891af5af477"
          },
          {
            "reference": "Observation/24819ebf-d5b4-683e-0110-660edae43ea2"
          }
        ]
      }
    },
    {
      "fullUrl": "urn:uuid:7ea37105-1ac1-cd38-764b-2e39e6e68f69",
      "resource": {
        "resourceType": "Observation",
        "id": "7ea37105-1ac1-cd38-764b-2e39e6e68f69",
        "meta": {
          "profile": [
            "http://hl7.org/fhir/us/ecr/StructureDefinition/us-ph-lab-result-observation"
          ]
        },
        "identifier": [
          {
            "system": "urn:oid:1.2.840.113619.21.1.139060385287897942.9",
            "value": "Observation/1885543262278850",
            "assigner": {
              "display": "31913-41995-12761042 API Resource Identifier"
            }
          }
        ],
        "category": [
          {
            "coding": [
              {
                "system": "http://terminology.hl7.org/CodeSystem/observation-category",
                "code": "laboratory"
              }
            ]
          }
        ],
        "status": "final",
        "code": {
          "coding": [
            {
              "code": "314330",
              "system": "urn:oid:1.2.840.113619.21.100.12.1053.139060385287897942",
              "display": "CHLAMURETHRA"
            }
          ],
          "text": "chlamydia, nucleic acid amplification test (NAAT) result, urethra culture"
        },
        "effectiveDateTime": "2019-09-27T09:52:20-05:00",
        "valueString": "NOT DETECTED",
        "subject": {
          "reference": "Patient/ea377416-4450-d765-db9b-56b3c15c917a"
        }
      }
    },
    {
      "fullUrl": "urn:uuid:9fe67f48-f8ad-873d-3247-608da094b936",
      "resource": {
        "resourceType": "Observation",
        "id": "9fe67f48-f8ad-873d-3247-608da094b936",
        "meta": {
          "profile": [
            "http://hl7.org/fhir/us/ecr/StructureDefinition/us-ph-lab-result-observation"
          ]
        },
        "identifier": [
          {
            "system": "urn:oid:1.2.840.113619.21.1.139060385287897942.9",
            "value": "Observation/1885543262278830",
            "assigner": {
              "display": "31913-41995-12761042 API Resource Identifier"
            }
          }
        ],
        "category": [
          {
            "coding": [
              {
                "system": "http://terminology.hl7.org/CodeSystem/observation-category",
                "code": "laboratory"
              }
            ]
          }
        ],
        "status": "final",
        "code": {
          "coding": [
            {
              "code": "314329",
              "system": "urn:oid:1.2.840.113619.21.100.12.1053.139060385287897942",
              "display": "CHLAMTHROAT"
            }
          ],
          "text": "chlamydia, nucleic acid amplification test (NAAT) result, throat culture"
        },
        "effectiveDateTime": "2019-09-27T09:52:20-05:00",
        "valueString": "NOT DETECTED",
        "subject": {
          "reference": "Patient/ea377416-4450-d765-db9b-56b3c15c917a"
        }
      }
    },
    {
      "fullUrl": "urn:uuid:57e614e8-359c-fa8b-2168-ec93def3e31d",
      "resource": {
        "resourceType": "Observation",
        "id": "57e614e8-359c-fa8b-2168-ec93def3e31d",
        "meta": {
          "profile": [
            "http://hl7.org/fhir/us/ecr/StructureDefinition/us-ph-lab-result-observation"
          ]
        },
        "identifier": [
          {
            "system": "urn:oid:1.2.840.113619.21.1.139060385287897942.9",
            "value": "Observation/1885543262278810",
            "assigner": {
              "display": "31913-41995-12761042 API Resource Identifier"
            }
          }
        ],
        "category": [
          {
            "coding": [
              {
                "system": "http://terminology.hl7.org/CodeSystem/observation-category",
                "code": "laboratory"
              }
            ]
          }
        ],
        "status": "final",
        "code": {
          "coding": [
            {
              "code": "117631",
              "system": "urn:oid:1.2.840.113619.21.100.12.1053.139060385287897942",
              "display": "CHLAMRECNAAT"
            }
          ],
          "text": "Chlamydia Rectal Nucleic acid amplification test (NAAT)"
        },
        "effectiveDateTime": "2019-09-27T09:52:20-05:00",
        "valueString": "NOT DETECTED",
        "subject": {
          "reference": "Patient/ea377416-4450-d765-db9b-56b3c15c917a"
        }
      }
    },
    {
      "fullUrl": "urn:uuid:a7e27fda-c763-de96-d489-9375d0adad40",
      "resource": {
        "resourceType": "Observation",
        "id": "a7e27fda-c763-de96-d489-9375d0adad40",
        "meta": {
          "profile": [
            "http://hl7.org/fhir/us/ecr/StructureDefinition/us-ph-lab-result-observation"
          ]
        },
        "identifier": [
          {
            "system": "urn:oid:1.2.840.113619.21.1.139060385287897942.9",
            "value": "Observation/1885543262278790",
            "assigner": {
              "display": "31913-41995-12761042 API Resource Identifier"
            }
          }
        ],
        "category": [
          {
            "coding": [
              {
                "system": "http://terminology.hl7.org/CodeSystem/observation-category",
                "code": "laboratory"
              }
            ]
          }
        ],
        "status": "final",
        "code": {
          "coding": [
            {
              "code": "2716",
              "system": "urn:oid:1.2.840.113619.21.100.12.1053.139060385287897942",
              "display": "CHLAM DNA PR"
            }
          ],
          "text": "MICROBE IDENTIFICATION"
        },
        "effectiveDateTime": "2019-09-27T09:52:20-05:00",
        "valueString": "Negative",
        "subject": {
          "reference": "Patient/ea377416-4450-d765-db9b-56b3c15c917a"
        }
      }
    },
    {
      "fullUrl": "urn:uuid:ae7dcc09-ea9b-4df9-6151-ac1313350852",
      "resource": {
        "resourceType": "Observation",
        "id": "ae7dcc09-ea9b-4df9-6151-ac1313350852",
        "meta": {
          "profile": [
            "http://hl7.org/fhir/us/ecr/StructureDefinition/us-ph-lab-result-observation"
          ]
        },
        "identifier": [
          {
            "system": "urn:oid:1.2.840.113619.21.1.139060385287897942.9",
            "value": "Observation/1885543262278770",
            "assigner": {
              "display": "31913-41995-12761042 API Resource Identifier"
            }
          }
        ],
        "category": [
          {
            "coding": [
              {
                "system": "http://terminology.hl7.org/CodeSystem/observation-category",
                "code": "laboratory"
              }
            ]
          }
        ],
        "status": "final",
        "code": {
          "coding": [
            {
              "code": "24111-7",
              "system": "http://loinc.org",
              "display": "N. gonorrhoeae DNA NAA+probe Ql (Specimen)"
            },
            {
              "code": "3552",
              "system": "urn:oid:1.2.840.113619.21.100.12.1053.139060385287897942",
              "display": "GC-URETHRA"
            }
          ],
          "text": "Neisseria gonorrhoeae, urethral culture"
        },
        "effectiveDateTime": "2019-09-27T09:52:20-05:00",
        "valueString": "DETECTED",
        "subject": {
          "reference": "Patient/ea377416-4450-d765-db9b-56b3c15c917a"
        }
      }
    },
    {
      "fullUrl": "urn:uuid:6ab463a2-db27-4390-2543-a664d3878d85",
      "resource": {
        "resourceType": "Observation",
        "id": "6ab463a2-db27-4390-2543-a664d3878d85",
        "meta": {
          "profile": [
            "http://hl7.org/fhir/us/ecr/StructureDefinition/us-ph-lab-result-observation"
          ]
        },
        "identifier": [
          {
            "system": "urn:oid:1.2.840.113619.21.1.139060385287897942.9",
            "value": "Observation/1885543262278750",
            "assigner": {
              "display": "31913-41995-12761042 API Resource Identifier"
            }
          }
        ],
        "category": [
          {
            "coding": [
              {
                "system": "http://terminology.hl7.org/CodeSystem/observation-category",
                "code": "laboratory"
              }
            ]
          }
        ],
        "status": "final",
        "code": {
          "coding": [
            {
              "code": "3553",
              "system": "urn:oid:1.2.840.113619.21.100.12.1053.139060385287897942",
              "display": "GC-THROAT"
            }
          ],
          "text": "Neisseria gonorrhoeae, throat culture"
        },
        "effectiveDateTime": "2019-09-27T09:52:20-05:00",
        "valueString": "DETECTED",
        "subject": {
          "reference": "Patient/ea377416-4450-d765-db9b-56b3c15c917a"
        }
      }
    },
    {
      "fullUrl": "urn:uuid:964d5fd3-14da-bb7a-3d1e-8891af5af477",
      "resource": {
        "resourceType": "Observation",
        "id": "964d5fd3-14da-bb7a-3d1e-8891af5af477",
        "meta": {
          "profile": [
            "http://hl7.org/fhir/us/ecr/StructureDefinition/us-ph-lab-result-observation"
          ]
        },
        "identifier": [
          {
            "system": "urn:oid:1.2.840.113619.21.1.139060385287897942.9",
            "value": "Observation/1885543262278730",
            "assigner": {
              "display": "31913-41995-12761042 API Resource Identifier"
            }
          }
        ],
        "category": [
          {
            "coding": [
              {
                "system": "http://terminology.hl7.org/CodeSystem/observation-category",
                "code": "laboratory"
              }
            ]
          }
        ],
        "status": "final",
        "code": {
          "coding": [
            {
              "code": "12700004",
              "system": "urn:oid:1.2.840.113619.21.100.12.1053.139060385287897942",
              "display": "GC RECTUM"
            }
          ],
          "text": "Gonorrhea Culture Rectum"
        },
        "effectiveDateTime": "2019-09-27T09:52:20-05:00",
        "valueString": "NOT DETECTED",
        "subject": {
          "reference": "Patient/ea377416-4450-d765-db9b-56b3c15c917a"
        }
      }
    },
    {
      "fullUrl": "urn:uuid:24819ebf-d5b4-683e-0110-660edae43ea2",
      "resource": {
        "resourceType": "Observation",
        "id": "24819ebf-d5b4-683e-0110-660edae43ea2",
        "meta": {
          "profile": [
            "http://hl7.org/fhir/us/ecr/StructureDefinition/us-ph-lab-result-observation"
          ]
        },
        "identifier": [
          {
            "system": "urn:oid:1.2.840.113619.21.1.139060385287897942.9",
            "value": "Observation/1885543262278710",
            "assigner": {
              "display": "31913-41995-12761042 API Resource Identifier"
            }
          }
        ],
        "category": [
          {
            "coding": [
              {
                "system": "http://terminology.hl7.org/CodeSystem/observation-category",
                "code": "laboratory"
              }
            ]
          }
        ],
        "status": "final",
        "code": {
          "coding": [
            {
              "code": "24111-7",
              "system": "http://loinc.org",
              "display": "N. gonorrhoeae DNA NAA+probe Ql (Specimen)"
            },
            {
              "code": "2719",
              "system": "urn:oid:1.2.840.113619.21.100.12.1053.139060385287897942",
              "display": "GC DNA PROBE"
            }
          ],
          "text": "Neisseria gonorrhoeae DNA probe"
        },
        "effectiveDateTime": "2019-09-27T09:52:20-05:00",
        "valueString": "Positive",
        "subject": {
          "reference": "Patient/ea377416-4450-d765-db9b-56b3c15c917a"
        }
      }
    },
    {
      "fullUrl": "urn:uuid:40b7b5c8-db3e-b6a2-ef7c-69a27639ea7f",
      "resource": {
        "resourceType": "Encounter",
        "id": "40b7b5c8-db3e-b6a2-ef7c-69a27639ea7f",
        "status": "finished",
        "class": {
          "code": "99201",
          "system": "http://www.ama-assn.org/go/cpt",
          "display": "Office Visit"
        },
        "identifier": [
          {
            "system": "urn:oid:1.2.840.113619.21.1.139060385287897942.9",
            "value": "Encounter/1896602119238660",
            "assigner": {
              "display": "31913-41995-12761042 API Resource Identifier"
            }
          }
        ],
        "period": {
          "start": "2020-02-06",
          "end": "2020-02-06"
        },
        "subject": {
          "reference": "Patient/ea377416-4450-d765-db9b-56b3c15c917a"
        },
        "participant": [
          {
            "individual": {
              "reference": "Practitioner/51bb3f76-b722-0b47-5b6b-9b1efd74138f"
            }
          }
        ],
        "location": [
          {
            "location": {
              "reference": "Location/1b0af1ec-2db3-0a7b-d55d-7367ceb9ee97"
            }
          }
        ]
      }
    },
    {
      "fullUrl": "urn:uuid:51bb3f76-b722-0b47-5b6b-9b1efd74138f",
      "resource": {
        "resourceType": "Practitioner",
        "id": "51bb3f76-b722-0b47-5b6b-9b1efd74138f",
        "meta": {
          "profile": [
            "http://hl7.org/fhir/us/core/StructureDefinition/us-core-practitioner"
          ]
        },
        "identifier": [
          {
            "system": "urn:oid:1.2.840.113619.21.1.139060385287897942.2.2",
            "value": "1635684796000010",
            "assigner": {
              "display": "31913-41995-12761042 Providers by PVID"
            }
          },
          {
            "system": "urn:oid:1.2.840.113619.21.1.139060385287897942.2.1",
            "value": "8",
            "assigner": {
              "display": "31913-41995-12761042 Providers by DoctorFacility"
            }
          },
          {
            "system": "http://hl7.org/fhir/sid/us-npi",
            "value": "99999999-19",
            "assigner": {
              "display": "US National Provider Identifiers"
            }
          }
        ],
        "name": [
          {
            "family": "Alliance",
            "given": [
              "Admin"
            ]
          }
        ],
        "address": [
          {
            "line": [
              "215 W. Ohio Street",
              "4th Floor"
            ],
            "city": "Chicago",
            "state": "IL",
            "postalCode": "60654"
          }
        ],
        "telecom": [
          {
            "system": "phone",
            "value": "3122740068",
            "use": "work"
          },
          {
            "system": "phone",
            "value": "3122740069",
            "use": "mobile"
          }
        ]
      }
    },
    {
      "fullUrl": "urn:uuid:1b0af1ec-2db3-0a7b-d55d-7367ceb9ee97",
      "resource": {
        "resourceType": "Location",
        "id": "1b0af1ec-2db3-0a7b-d55d-7367ceb9ee97",
        "meta": {
          "profile": [
            "http://hl7.org/fhir/us/ecr/StructureDefinition/us-ph-location"
          ]
        },
        "identifier": [
          {
            "system": "urn:ietf:rfc:3986",
            "value": "urn:uuid:1b0af1ec-2db3-0a7b-d55d-7367ceb9ee97"
          }
        ],
        "_name": {
          "extension": [
            {
              "url": "http://hl7.org/fhir/StructureDefinition/data-absent-reason",
              "valueCode": "unknown"
            }
          ]
        },
        "address": {
          "line": [
            "1276 N Clybourn"
          ],
          "city": "Chicago",
          "state": "IL ",
          "country": "USA",
          "postalCode": "60610"
        },
        "telecom": [
          {
            "system": "phone",
            "value": "3123371073",
            "use": "work"
          },
          {
            "system": "email",
            "value": "wtijani@nmh.org"
          }
        ],
        "type": [
          {
            "coding": [
              {
                "code": "unknown",
                "system": "http://terminology.hl7.org/CodeSystem/data-absent-reason"
              }
            ]
          }
        ]
      }
    },
    {
      "fullUrl": "urn:uuid:ae64e9d0-1bb4-10c8-8b15-c0ef945e0006",
      "resource": {
        "resourceType": "Encounter",
        "id": "ae64e9d0-1bb4-10c8-8b15-c0ef945e0006",
        "status": "finished",
        "class": {
          "code": "99201",
          "system": "http://www.ama-assn.org/go/cpt",
          "display": "Office Visit"
        },
        "identifier": [
          {
            "system": "urn:oid:1.2.840.113619.21.1.139060385287897942.9",
            "value": "Encounter/1895841505726540",
            "assigner": {
              "display": "31913-41995-12761042 API Resource Identifier"
            }
          }
        ],
        "period": {
          "start": "2020-01-28",
          "end": "2020-01-28"
        },
        "priority": {
          "coding": [
            {
              "code": "unknown",
              "system": "http://terminology.hl7.org/CodeSystem/data-absent-reason"
            }
          ]
        },
        "hospitalization": {
          "dischargeDisposition": {
            "coding": [
              {
                "code": "unknown",
                "system": "http://terminology.hl7.org/CodeSystem/data-absent-reason"
              }
            ]
          }
        },
        "subject": {
          "reference": "Patient/ea377416-4450-d765-db9b-56b3c15c917a"
        },
        "participant": [
          {
            "individual": {
              "reference": "Practitioner/0621b792-a4d4-c1f8-9ff6-12e269b23a18"
            }
          }
        ],
        "location": [
          {
            "location": {
              "reference": "Location/f1a23588-038e-4cdb-3c4d-6c06e83cfcfe"
            }
          }
        ]
      }
    },
    {
      "fullUrl": "urn:uuid:0621b792-a4d4-c1f8-9ff6-12e269b23a18",
      "resource": {
        "resourceType": "Practitioner",
        "id": "0621b792-a4d4-c1f8-9ff6-12e269b23a18",
        "meta": {
          "profile": [
            "http://hl7.org/fhir/us/core/StructureDefinition/us-core-practitioner"
          ]
        },
        "identifier": [
          {
            "system": "urn:oid:1.2.840.113619.21.1.139060385287897942.2.2",
            "value": "1727085086053410",
            "assigner": {
              "display": "31913-41995-12761042 Providers by PVID"
            }
          },
          {
            "system": "http://hl7.org/fhir/sid/us-npi",
            "_value": {
              "extension": [
                {
                  "url": "http://hl7.org/fhir/StructureDefinition/data-absent-reason",
                  "valueCode": "unknown"
                }
              ]
            },
            "assigner": {
              "display": "US National Provider Identifiers"
            }
          },
          {
            "system": "urn:oid:1.2.840.113619.21.1.139060385287897942.2.1",
            "value": "1080",
            "assigner": {
              "display": "31913-41995-12761042 Providers by DoctorFacility"
            }
          }
        ],
        "name": [
          {
            "family": "Reid",
            "given": [
              "Fredrick"
            ]
          }
        ],
        "address": [
          {
            "line": [
              "Winfield Moody",
              "1276 N. Clybourn Ave"
            ],
            "city": "Chicago",
            "state": "IL ",
            "postalCode": "60619"
          }
        ],
        "telecom": [
          {
            "system": "phone",
            "value": "3123371073",
            "use": "work"
          },
          {
            "system": "phone",
            "value": "3123377616",
            "use": "mobile"
          }
        ]
      }
    },
    {
      "fullUrl": "urn:uuid:f1a23588-038e-4cdb-3c4d-6c06e83cfcfe",
      "resource": {
        "resourceType": "Location",
        "id": "f1a23588-038e-4cdb-3c4d-6c06e83cfcfe",
        "meta": {
          "profile": [
            "http://hl7.org/fhir/us/ecr/StructureDefinition/us-ph-location"
          ]
        },
        "identifier": [
          {
            "system": "urn:ietf:rfc:3986",
            "value": "urn:uuid:f1a23588-038e-4cdb-3c4d-6c06e83cfcfe"
          }
        ],
        "_name": {
          "extension": [
            {
              "url": "http://hl7.org/fhir/StructureDefinition/data-absent-reason",
              "valueCode": "unknown"
            }
          ]
        },
        "address": {
          "line": [
            "4259 S. Berkeley"
          ],
          "city": "Chicago",
          "state": "IL",
          "country": "USA",
          "postalCode": "60653"
        },
        "telecom": [
          {
            "system": "phone",
            "value": "7732687600",
            "use": "work"
          },
          {
            "system": "email",
            "value": "nnhsc.emrcoordinator@nm.org"
          }
        ],
        "type": [
          {
            "coding": [
              {
                "code": "unknown",
                "system": "http://terminology.hl7.org/CodeSystem/data-absent-reason"
              }
            ]
          }
        ]
      }
    },
    {
      "fullUrl": "urn:uuid:0cd60340-f685-5e6d-08bd-b29d9a462dd7",
      "resource": {
        "resourceType": "Encounter",
        "id": "0cd60340-f685-5e6d-08bd-b29d9a462dd7",
        "status": "finished",
        "class": {
          "code": "99201",
          "system": "http://www.ama-assn.org/go/cpt",
          "display": "Office Visit"
        },
        "identifier": [
          {
            "system": "urn:oid:1.2.840.113619.21.1.139060385287897942.9",
            "value": "Encounter/1887444137204410",
            "assigner": {
              "display": "31913-41995-12761042 API Resource Identifier"
            }
          }
        ],
        "period": {
          "start": "2019-10-23",
          "end": "2019-10-23"
        },
        "priority": {
          "coding": [
            {
              "code": "unknown",
              "system": "http://terminology.hl7.org/CodeSystem/data-absent-reason"
            }
          ]
        },
        "hospitalization": {
          "dischargeDisposition": {
            "coding": [
              {
                "code": "unknown",
                "system": "http://terminology.hl7.org/CodeSystem/data-absent-reason"
              }
            ]
          }
        },
        "subject": {
          "reference": "Patient/ea377416-4450-d765-db9b-56b3c15c917a"
        },
        "participant": [
          {
            "individual": {
              "reference": "Practitioner/e8008478-e986-f4cd-b324-9c3ff2a690dd"
            }
          }
        ],
        "location": [
          {
            "location": {
              "reference": "Location/f1a23588-038e-4cdb-3c4d-6c06e83cfcfe"
            }
          }
        ]
      }
    },
    {
      "fullUrl": "urn:uuid:e8008478-e986-f4cd-b324-9c3ff2a690dd",
      "resource": {
        "resourceType": "Practitioner",
        "id": "e8008478-e986-f4cd-b324-9c3ff2a690dd",
        "meta": {
          "profile": [
            "http://hl7.org/fhir/us/core/StructureDefinition/us-core-practitioner"
          ]
        },
        "identifier": [
          {
            "system": "urn:oid:1.2.840.113619.21.1.139060385287897942.2.2",
            "value": "1697100898957460",
            "assigner": {
              "display": "31913-41995-12761042 Providers by PVID"
            }
          },
          {
            "system": "urn:oid:1.2.840.113619.21.1.139060385287897942.2.1",
            "value": "921",
            "assigner": {
              "display": "31913-41995-12761042 Providers by DoctorFacility"
            }
          },
          {
            "system": "http://hl7.org/fhir/sid/us-npi",
            "value": "1336395078",
            "assigner": {
              "display": "US National Provider Identifiers"
            }
          },
          {
            "system": "urn:oid:2.16.840.1.113883.4.2",
            "value": "363197647",
            "assigner": {
              "display": "Federal Tax Identifier"
            }
          }
        ],
        "name": [
          {
            "family": "Herzan-Taylor",
            "given": [
              "Elizabeth"
            ]
          }
        ],
        "address": [
          {
            "line": [
              "Denny Community Health Center",
              "30 W. Chicago"
            ],
            "city": "Chicago",
            "state": "IL",
            "postalCode": "60610"
          }
        ],
        "telecom": [
          {
            "system": "phone",
            "value": "3129263964",
            "use": "work"
          },
          {
            "system": "phone",
            "value": "3129263028",
            "use": "mobile"
          }
        ]
      }
    },
    {
      "fullUrl": "urn:uuid:e8150770-912c-00c4-f368-f6a5beb127e3",
      "resource": {
        "resourceType": "Encounter",
        "id": "e8150770-912c-00c4-f368-f6a5beb127e3",
        "status": "finished",
        "class": {
          "code": "99201",
          "system": "http://www.ama-assn.org/go/cpt",
          "display": "Office Visit"
        },
        "identifier": [
          {
            "system": "urn:oid:1.2.840.113619.21.1.139060385287897942.9",
            "value": "Encounter/1887444093198930",
            "assigner": {
              "display": "31913-41995-12761042 API Resource Identifier"
            }
          }
        ],
        "period": {
          "start": "2019-10-23",
          "end": "2019-10-23"
        },
        "priority": {
          "coding": [
            {
              "code": "unknown",
              "system": "http://terminology.hl7.org/CodeSystem/data-absent-reason"
            }
          ]
        },
        "hospitalization": {
          "dischargeDisposition": {
            "coding": [
              {
                "code": "unknown",
                "system": "http://terminology.hl7.org/CodeSystem/data-absent-reason"
              }
            ]
          }
        },
        "subject": {
          "reference": "Patient/ea377416-4450-d765-db9b-56b3c15c917a"
        },
        "participant": [
          {
            "individual": {
              "reference": "Practitioner/e8008478-e986-f4cd-b324-9c3ff2a690dd"
            }
          }
        ],
        "location": [
          {
            "location": {
              "reference": "Location/f1a23588-038e-4cdb-3c4d-6c06e83cfcfe"
            }
          }
        ]
      }
    },
    {
      "fullUrl": "urn:uuid:6cc3e9db-ae38-9771-0c8b-d06df7fff803",
      "resource": {
        "resourceType": "Encounter",
        "id": "6cc3e9db-ae38-9771-0c8b-d06df7fff803",
        "status": "finished",
        "class": {
          "code": "99201",
          "system": "http://www.ama-assn.org/go/cpt",
          "display": "Office Visit"
        },
        "identifier": [
          {
            "system": "urn:oid:1.2.840.113619.21.1.139060385287897942.9",
            "value": "Encounter/1885564907118950",
            "assigner": {
              "display": "31913-41995-12761042 API Resource Identifier"
            }
          }
        ],
        "period": {
          "start": "2019-10-01",
          "end": "2019-10-01"
        },
        "priority": {
          "coding": [
            {
              "code": "unknown",
              "system": "http://terminology.hl7.org/CodeSystem/data-absent-reason"
            }
          ]
        },
        "hospitalization": {
          "dischargeDisposition": {
            "coding": [
              {
                "code": "unknown",
                "system": "http://terminology.hl7.org/CodeSystem/data-absent-reason"
              }
            ]
          }
        },
        "subject": {
          "reference": "Patient/ea377416-4450-d765-db9b-56b3c15c917a"
        },
        "participant": [
          {
            "individual": {
              "reference": "Practitioner/51bb3f76-b722-0b47-5b6b-9b1efd74138f"
            }
          }
        ],
        "location": [
          {
            "location": {
              "reference": "Location/b1780490-5522-b399-cb1d-3e23f748c549"
            }
          }
        ]
      }
    },
    {
      "fullUrl": "urn:uuid:b1780490-5522-b399-cb1d-3e23f748c549",
      "resource": {
        "resourceType": "Location",
        "id": "b1780490-5522-b399-cb1d-3e23f748c549",
        "meta": {
          "profile": [
            "http://hl7.org/fhir/us/ecr/StructureDefinition/us-ph-location"
          ]
        },
        "identifier": [
          {
            "system": "urn:ietf:rfc:3986",
            "value": "urn:uuid:b1780490-5522-b399-cb1d-3e23f748c549"
          }
        ],
        "_name": {
          "extension": [
            {
              "url": "http://hl7.org/fhir/StructureDefinition/data-absent-reason",
              "valueCode": "unknown"
            }
          ]
        },
        "address": {
          "line": [
            "800 N Kedzie"
          ],
          "city": "Chicago",
          "state": "IL",
          "country": "USA",
          "postalCode": "60651"
        },
        "telecom": [
          {
            "system": "phone",
            "value": "7738263450",
            "use": "work"
          },
          {
            "system": "email",
            "value": "nnhsc.emrcoordinator@nm.org"
          }
        ],
        "type": [
          {
            "coding": [
              {
                "code": "unknown",
                "system": "http://terminology.hl7.org/CodeSystem/data-absent-reason"
              }
            ]
          }
        ]
      }
    },
    {
      "fullUrl": "urn:uuid:4817ca16-b315-0ab5-fa82-d035df6b14c9",
      "resource": {
        "resourceType": "Encounter",
        "id": "4817ca16-b315-0ab5-fa82-d035df6b14c9",
        "status": "finished",
        "class": {
          "code": "99201",
          "system": "http://www.ama-assn.org/go/cpt",
          "display": "Office Visit"
        },
        "identifier": [
          {
            "system": "urn:oid:1.2.840.113619.21.1.139060385287897942.9",
            "value": "Encounter/1885542739218570",
            "assigner": {
              "display": "31913-41995-12761042 API Resource Identifier"
            }
          }
        ],
        "period": {
          "start": "2019-10-04",
          "end": "2019-10-04"
        },
        "priority": {
          "coding": [
            {
              "code": "unknown",
              "system": "http://terminology.hl7.org/CodeSystem/data-absent-reason"
            }
          ]
        },
        "hospitalization": {
          "dischargeDisposition": {
            "coding": [
              {
                "code": "unknown",
                "system": "http://terminology.hl7.org/CodeSystem/data-absent-reason"
              }
            ]
          }
        },
        "subject": {
          "reference": "Patient/ea377416-4450-d765-db9b-56b3c15c917a"
        },
        "location": [
          {
            "location": {
              "reference": "Location/f1a23588-038e-4cdb-3c4d-6c06e83cfcfe"
            }
          }
        ]
      }
    },
    {
      "fullUrl": "urn:uuid:4ec437dd-bf28-93df-d3d5-314d1b68ee30",
      "resource": {
        "resourceType": "Encounter",
        "id": "4ec437dd-bf28-93df-d3d5-314d1b68ee30",
        "status": "finished",
        "class": {
          "code": "99201",
          "system": "http://www.ama-assn.org/go/cpt",
          "display": "Office Visit"
        },
        "identifier": [
          {
            "system": "urn:oid:1.2.840.113619.21.1.139060385287897942.9",
            "value": "Encounter/1884468964206710",
            "assigner": {
              "display": "31913-41995-12761042 API Resource Identifier"
            }
          }
        ],
        "period": {
          "start": "2019-09-18",
          "end": "2019-09-18"
        },
        "priority": {
          "coding": [
            {
              "code": "unknown",
              "system": "http://terminology.hl7.org/CodeSystem/data-absent-reason"
            }
          ]
        },
        "hospitalization": {
          "dischargeDisposition": {
            "coding": [
              {
                "code": "unknown",
                "system": "http://terminology.hl7.org/CodeSystem/data-absent-reason"
              }
            ]
          }
        },
        "subject": {
          "reference": "Patient/ea377416-4450-d765-db9b-56b3c15c917a"
        },
        "location": [
          {
            "location": {
              "reference": "Location/1b0af1ec-2db3-0a7b-d55d-7367ceb9ee97"
            }
          }
        ]
      }
    },
    {
      "fullUrl": "urn:uuid:575ed18b-9b24-17a8-8470-5e32bea75b0e",
      "resource": {
        "resourceType": "Encounter",
        "id": "575ed18b-9b24-17a8-8470-5e32bea75b0e",
        "status": "finished",
        "class": {
          "code": "99201",
          "system": "http://www.ama-assn.org/go/cpt",
          "display": "Office Visit"
        },
        "identifier": [
          {
            "system": "urn:oid:1.2.840.113619.21.1.139060385287897942.9",
            "value": "Encounter/1884336474247660",
            "assigner": {
              "display": "31913-41995-12761042 API Resource Identifier"
            }
          }
        ],
        "period": {
          "start": "2019-09-17",
          "end": "2019-09-17"
        },
        "priority": {
          "coding": [
            {
              "code": "unknown",
              "system": "http://terminology.hl7.org/CodeSystem/data-absent-reason"
            }
          ]
        },
        "hospitalization": {
          "dischargeDisposition": {
            "coding": [
              {
                "code": "unknown",
                "system": "http://terminology.hl7.org/CodeSystem/data-absent-reason"
              }
            ]
          }
        },
        "subject": {
          "reference": "Patient/ea377416-4450-d765-db9b-56b3c15c917a"
        },
        "participant": [
          {
            "individual": {
              "reference": "Practitioner/e8008478-e986-f4cd-b324-9c3ff2a690dd"
            }
          }
        ],
        "location": [
          {
            "location": {
              "reference": "Location/2933fd8b-4b3f-097b-c19e-e6f695d43d5a"
            }
          }
        ]
      }
    },
    {
      "fullUrl": "urn:uuid:2933fd8b-4b3f-097b-c19e-e6f695d43d5a",
      "resource": {
        "resourceType": "Location",
        "id": "2933fd8b-4b3f-097b-c19e-e6f695d43d5a",
        "meta": {
          "profile": [
            "http://hl7.org/fhir/us/ecr/StructureDefinition/us-ph-location"
          ]
        },
        "identifier": [
          {
            "system": "urn:ietf:rfc:3986",
            "value": "urn:uuid:2933fd8b-4b3f-097b-c19e-e6f695d43d5a"
          }
        ],
        "_name": {
          "extension": [
            {
              "url": "http://hl7.org/fhir/StructureDefinition/data-absent-reason",
              "valueCode": "unknown"
            }
          ]
        },
        "address": {
          "line": [
            "834 E. 50th Street"
          ],
          "city": "Chicago",
          "state": "IL",
          "country": "USA",
          "postalCode": "60615"
        },
        "telecom": [
          {
            "system": "phone",
            "value": "7733586767",
            "use": "work"
          },
          {
            "system": "phone",
            "value": "3123371073"
          },
          {
            "system": "email",
            "value": "nnhsc.emrcoordinator@nm.org"
          }
        ],
        "type": [
          {
            "coding": [
              {
                "code": "unknown",
                "system": "http://terminology.hl7.org/CodeSystem/data-absent-reason"
              }
            ]
          }
        ]
      }
    },
    {
      "fullUrl": "urn:uuid:98d386cc-5e8c-8b20-573b-c49ff11e59ea",
      "resource": {
        "resourceType": "Encounter",
        "id": "98d386cc-5e8c-8b20-573b-c49ff11e59ea",
        "status": "finished",
        "class": {
          "code": "99201",
          "system": "http://www.ama-assn.org/go/cpt",
          "display": "Office Visit"
        },
        "identifier": [
          {
            "system": "urn:oid:1.2.840.113619.21.1.139060385287897942.9",
            "value": "Encounter/1884336313231950",
            "assigner": {
              "display": "31913-41995-12761042 API Resource Identifier"
            }
          }
        ],
        "period": {
          "start": "2019-09-17",
          "end": "2019-09-17"
        },
        "priority": {
          "coding": [
            {
              "code": "unknown",
              "system": "http://terminology.hl7.org/CodeSystem/data-absent-reason"
            }
          ]
        },
        "hospitalization": {
          "dischargeDisposition": {
            "coding": [
              {
                "code": "unknown",
                "system": "http://terminology.hl7.org/CodeSystem/data-absent-reason"
              }
            ]
          }
        },
        "subject": {
          "reference": "Patient/ea377416-4450-d765-db9b-56b3c15c917a"
        },
        "participant": [
          {
            "individual": {
              "reference": "Practitioner/e8008478-e986-f4cd-b324-9c3ff2a690dd"
            }
          }
        ],
        "location": [
          {
            "location": {
              "reference": "Location/2933fd8b-4b3f-097b-c19e-e6f695d43d5a"
            }
          }
        ]
      }
    },
    {
      "fullUrl": "urn:uuid:513c1993-fad0-2167-47cb-3327cfadd9fc",
      "resource": {
        "resourceType": "Encounter",
        "id": "513c1993-fad0-2167-47cb-3327cfadd9fc",
        "status": "finished",
        "class": {
          "code": "99201",
          "system": "http://www.ama-assn.org/go/cpt",
          "display": "Office Visit"
        },
        "identifier": [
          {
            "system": "urn:oid:1.2.840.113619.21.1.139060385287897942.9",
            "value": "Encounter/1884327523454390",
            "assigner": {
              "display": "31913-41995-12761042 API Resource Identifier"
            }
          }
        ],
        "period": {
          "start": "2019-09-17",
          "end": "2019-09-17"
        },
        "priority": {
          "coding": [
            {
              "code": "unknown",
              "system": "http://terminology.hl7.org/CodeSystem/data-absent-reason"
            }
          ]
        },
        "hospitalization": {
          "dischargeDisposition": {
            "coding": [
              {
                "code": "unknown",
                "system": "http://terminology.hl7.org/CodeSystem/data-absent-reason"
              }
            ]
          }
        },
        "subject": {
          "reference": "Patient/ea377416-4450-d765-db9b-56b3c15c917a"
        },
        "participant": [
          {
            "individual": {
              "reference": "Practitioner/e8008478-e986-f4cd-b324-9c3ff2a690dd"
            }
          }
        ],
        "location": [
          {
            "location": {
              "reference": "Location/2933fd8b-4b3f-097b-c19e-e6f695d43d5a"
            }
          }
        ]
      }
    },
    {
      "fullUrl": "urn:uuid:76c76e89-32e8-c92f-738e-441210380855",
      "resource": {
        "resourceType": "Encounter",
        "id": "76c76e89-32e8-c92f-738e-441210380855",
        "status": "finished",
        "class": {
          "code": "99201",
          "system": "http://www.ama-assn.org/go/cpt",
          "display": "Office Visit"
        },
        "identifier": [
          {
            "system": "urn:oid:1.2.840.113619.21.1.139060385287897942.9",
            "value": "Encounter/1883998051014080",
            "assigner": {
              "display": "31913-41995-12761042 API Resource Identifier"
            }
          }
        ],
        "period": {
          "start": "2019-09-13",
          "end": "2019-09-13"
        },
        "priority": {
          "coding": [
            {
              "code": "unknown",
              "system": "http://terminology.hl7.org/CodeSystem/data-absent-reason"
            }
          ]
        },
        "hospitalization": {
          "dischargeDisposition": {
            "coding": [
              {
                "code": "unknown",
                "system": "http://terminology.hl7.org/CodeSystem/data-absent-reason"
              }
            ]
          }
        },
        "subject": {
          "reference": "Patient/ea377416-4450-d765-db9b-56b3c15c917a"
        },
        "participant": [
          {
            "individual": {
              "reference": "Practitioner/1b9aa655-b28f-7714-7a67-55cb0474fd60"
            }
          }
        ],
        "location": [
          {
            "location": {
              "reference": "Location/37a038a3-4bea-accc-43fa-c65d4c07b35b"
            }
          }
        ]
      }
    },
    {
      "fullUrl": "urn:uuid:1b9aa655-b28f-7714-7a67-55cb0474fd60",
      "resource": {
        "resourceType": "Practitioner",
        "id": "1b9aa655-b28f-7714-7a67-55cb0474fd60",
        "meta": {
          "profile": [
            "http://hl7.org/fhir/us/core/StructureDefinition/us-core-practitioner"
          ]
        },
        "identifier": [
          {
            "system": "urn:oid:1.2.840.113619.21.1.139060385287897942.2.2",
            "value": "1837940096111040",
            "assigner": {
              "display": "31913-41995-12761042 Providers by PVID"
            }
          },
          {
            "system": "http://hl7.org/fhir/sid/us-npi",
            "_value": {
              "extension": [
                {
                  "url": "http://hl7.org/fhir/StructureDefinition/data-absent-reason",
                  "valueCode": "unknown"
                }
              ]
            },
            "assigner": {
              "display": "US National Provider Identifiers"
            }
          },
          {
            "system": "urn:oid:1.2.840.113619.21.1.139060385287897942.2.1",
            "value": "1644",
            "assigner": {
              "display": "31913-41995-12761042 Providers by DoctorFacility"
            }
          }
        ],
        "name": [
          {
            "family": "Greyer",
            "given": [
              "Rhonda"
            ]
          }
        ],
        "address": [
          {
            "line": [
              "North Kostner Health Center",
              "1520 N. Kostner Ave."
            ],
            "city": "Chicago",
            "state": "IL",
            "country": "USA",
            "postalCode": "60651"
          }
        ],
        "telecom": [
          {
            "system": "phone",
            "value": "12 6 820",
            "use": "work"
          },
          {
            "system": "phone",
            "value": "73 2 476",
            "use": "mobile"
          }
        ]
      }
    },
    {
      "fullUrl": "urn:uuid:37a038a3-4bea-accc-43fa-c65d4c07b35b",
      "resource": {
        "resourceType": "Location",
        "id": "37a038a3-4bea-accc-43fa-c65d4c07b35b",
        "meta": {
          "profile": [
            "http://hl7.org/fhir/us/ecr/StructureDefinition/us-ph-location"
          ]
        },
        "identifier": [
          {
            "system": "urn:ietf:rfc:3986",
            "value": "urn:uuid:37a038a3-4bea-accc-43fa-c65d4c07b35b"
          }
        ],
        "_name": {
          "extension": [
            {
              "url": "http://hl7.org/fhir/StructureDefinition/data-absent-reason",
              "valueCode": "unknown"
            }
          ]
        },
        "address": {
          "line": [
            "4501 N Sheridan Road"
          ],
          "city": "Chicago",
          "state": "IL ",
          "postalCode": "60640"
        },
        "telecom": [
          {
            "system": "phone",
            "value": "7738788098",
            "use": "work"
          },
          {
            "system": "email",
            "value": "nnhsc.emrcoordinator@nm.org"
          }
        ],
        "type": [
          {
            "coding": [
              {
                "code": "unknown",
                "system": "http://terminology.hl7.org/CodeSystem/data-absent-reason"
              }
            ]
          }
        ]
      }
    },
    {
      "fullUrl": "urn:uuid:835223f5-be80-b129-792a-279dd51efa33",
      "resource": {
        "resourceType": "Encounter",
        "id": "835223f5-be80-b129-792a-279dd51efa33",
        "status": "finished",
        "class": {
          "code": "99201",
          "system": "http://www.ama-assn.org/go/cpt",
          "display": "Office Visit"
        },
        "identifier": [
          {
            "system": "urn:oid:1.2.840.113619.21.1.139060385287897942.9",
            "value": "Encounter/1882804434610870",
            "assigner": {
              "display": "31913-41995-12761042 API Resource Identifier"
            }
          }
        ],
        "period": {
          "start": "2019-08-30",
          "end": "2019-08-30"
        },
        "priority": {
          "coding": [
            {
              "code": "unknown",
              "system": "http://terminology.hl7.org/CodeSystem/data-absent-reason"
            }
          ]
        },
        "hospitalization": {
          "dischargeDisposition": {
            "coding": [
              {
                "code": "unknown",
                "system": "http://terminology.hl7.org/CodeSystem/data-absent-reason"
              }
            ]
          }
        },
        "subject": {
          "reference": "Patient/ea377416-4450-d765-db9b-56b3c15c917a"
        },
        "participant": [
          {
            "individual": {
              "reference": "Practitioner/51bb3f76-b722-0b47-5b6b-9b1efd74138f"
            }
          }
        ],
        "location": [
          {
            "location": {
              "reference": "Location/b1780490-5522-b399-cb1d-3e23f748c549"
            }
          }
        ],
        "diagnosis": [
          {
            "condition": {
              "reference": "Condition/23a71596-92ef-6b5e-c9b1-5ed83aa52e18"
            }
          }
        ]
      }
    },
    {
      "fullUrl": "urn:uuid:23a71596-92ef-6b5e-c9b1-5ed83aa52e18",
      "resource": {
        "resourceType": "Condition",
        "id": "23a71596-92ef-6b5e-c9b1-5ed83aa52e18",
        "identifier": [
          {
            "system": "urn:oid:1.2.840.113619.21.1.139060385287897942.9",
            "value": "Condition/1882804434611020",
            "assigner": {
              "display": "31913-41995-12761042 API Resource Identifier"
            }
          }
        ],
        "category": [
          {
            "coding": [
              {
                "code": "problem-item-list",
                "display": "Problem List Item",
                "system": "http://hl7.org/fhir/us/core/ValueSet/us-core-condition-category"
              }
            ]
          }
        ],
        "code": {
          "text": "Manual eICR document generated from Athenahealth API Server"
        },
        "onsetDateTime": "2019-08-30T00:00:00-05:00",
        "subject": {
          "reference": "Patient/ea377416-4450-d765-db9b-56b3c15c917a"
        }
      }
    },
    {
      "fullUrl": "urn:uuid:eb2c3b5a-9251-19ea-57d5-64f9f402be32",
      "resource": {
        "resourceType": "Encounter",
        "id": "eb2c3b5a-9251-19ea-57d5-64f9f402be32",
        "status": "finished",
        "class": {
          "code": "99201",
          "system": "http://www.ama-assn.org/go/cpt",
          "display": "Office Visit"
        },
        "identifier": [
          {
            "system": "urn:oid:1.2.840.113619.21.1.139060385287897942.9",
            "value": "Encounter/1879409482907420",
            "assigner": {
              "display": "31913-41995-12761042 API Resource Identifier"
            }
          }
        ],
        "period": {
          "start": "2019-09-09",
          "end": "2019-09-09"
        },
        "priority": {
          "coding": [
            {
              "code": "unknown",
              "system": "http://terminology.hl7.org/CodeSystem/data-absent-reason"
            }
          ]
        },
        "hospitalization": {
          "dischargeDisposition": {
            "coding": [
              {
                "code": "unknown",
                "system": "http://terminology.hl7.org/CodeSystem/data-absent-reason"
              }
            ]
          }
        },
        "subject": {
          "reference": "Patient/ea377416-4450-d765-db9b-56b3c15c917a"
        },
        "location": [
          {
            "location": {
              "reference": "Location/35599744-9c09-bdfc-c47e-2d4a0392ea18"
            }
          }
        ]
      }
    },
    {
      "fullUrl": "urn:uuid:35599744-9c09-bdfc-c47e-2d4a0392ea18",
      "resource": {
        "resourceType": "Location",
        "id": "35599744-9c09-bdfc-c47e-2d4a0392ea18",
        "meta": {
          "profile": [
            "http://hl7.org/fhir/us/ecr/StructureDefinition/us-ph-location"
          ]
        },
        "identifier": [
          {
            "system": "urn:ietf:rfc:3986",
            "value": "urn:uuid:35599744-9c09-bdfc-c47e-2d4a0392ea18"
          }
        ],
        "_name": {
          "extension": [
            {
              "url": "http://hl7.org/fhir/StructureDefinition/data-absent-reason",
              "valueCode": "unknown"
            }
          ]
        },
        "address": {
          "line": [
            "1276 N. Clybourn"
          ],
          "city": "Chicago",
          "state": "IL",
          "country": "USA",
          "postalCode": "60610"
        },
        "telecom": [
          {
            "system": "phone",
            "value": "3123371073",
            "use": "work"
          },
          {
            "system": "email",
            "value": "nnhsc.emrcoordinator@nm.org"
          }
        ],
        "type": [
          {
            "coding": [
              {
                "code": "unknown",
                "system": "http://terminology.hl7.org/CodeSystem/data-absent-reason"
              }
            ]
          }
        ]
      }
    },
    {
      "fullUrl": "urn:uuid:4c6ba8be-e240-aff1-41c5-9819d2934055",
      "resource": {
        "resourceType": "Encounter",
        "id": "4c6ba8be-e240-aff1-41c5-9819d2934055",
        "status": "finished",
        "class": {
          "code": "99201",
          "system": "http://www.ama-assn.org/go/cpt",
          "display": "Office Visit"
        },
        "identifier": [
          {
            "system": "urn:oid:1.2.840.113619.21.1.139060385287897942.9",
            "value": "Encounter/1876487014968240",
            "assigner": {
              "display": "31913-41995-12761042 API Resource Identifier"
            }
          }
        ],
        "period": {
          "start": "2019-06-18",
          "end": "2019-06-18"
        },
        "priority": {
          "coding": [
            {
              "code": "unknown",
              "system": "http://terminology.hl7.org/CodeSystem/data-absent-reason"
            }
          ]
        },
        "hospitalization": {
          "dischargeDisposition": {
            "coding": [
              {
                "code": "unknown",
                "system": "http://terminology.hl7.org/CodeSystem/data-absent-reason"
              }
            ]
          }
        },
        "subject": {
          "reference": "Patient/ea377416-4450-d765-db9b-56b3c15c917a"
        },
        "participant": [
          {
            "individual": {
              "reference": "Practitioner/51bb3f76-b722-0b47-5b6b-9b1efd74138f"
            }
          }
        ],
        "location": [
          {
            "location": {
              "reference": "Location/b1780490-5522-b399-cb1d-3e23f748c549"
            }
          }
        ]
      }
    },
    {
      "fullUrl": "urn:uuid:d41fb6aa-732f-a2ea-acc0-a3e7d93eaecb",
      "resource": {
        "resourceType": "Encounter",
        "id": "d41fb6aa-732f-a2ea-acc0-a3e7d93eaecb",
        "status": "finished",
        "class": {
          "code": "99201",
          "system": "http://www.ama-assn.org/go/cpt",
          "display": "Office Visit"
        },
        "identifier": [
          {
            "system": "urn:oid:1.2.840.113619.21.1.139060385287897942.9",
            "value": "Encounter/1872341657865040",
            "assigner": {
              "display": "31913-41995-12761042 API Resource Identifier"
            }
          }
        ],
        "period": {
          "start": "2019-05-01",
          "end": "2019-05-01"
        },
        "priority": {
          "coding": [
            {
              "code": "unknown",
              "system": "http://terminology.hl7.org/CodeSystem/data-absent-reason"
            }
          ]
        },
        "hospitalization": {
          "dischargeDisposition": {
            "coding": [
              {
                "code": "unknown",
                "system": "http://terminology.hl7.org/CodeSystem/data-absent-reason"
              }
            ]
          }
        },
        "subject": {
          "reference": "Patient/ea377416-4450-d765-db9b-56b3c15c917a"
        },
        "location": [
          {
            "location": {
              "reference": "Location/f1a23588-038e-4cdb-3c4d-6c06e83cfcfe"
            }
          }
        ]
      }
    },
    {
      "fullUrl": "urn:uuid:5314492b-87d6-ec44-f994-bf52f5c955f0",
      "resource": {
        "resourceType": "Encounter",
        "id": "5314492b-87d6-ec44-f994-bf52f5c955f0",
        "status": "finished",
        "class": {
          "code": "99201",
          "system": "http://www.ama-assn.org/go/cpt",
          "display": "Office Visit"
        },
        "identifier": [
          {
            "system": "urn:oid:1.2.840.113619.21.1.139060385287897942.9",
            "value": "Encounter/1868191486625310",
            "assigner": {
              "display": "31913-41995-12761042 API Resource Identifier"
            }
          }
        ],
        "period": {
          "start": "2019-04-02",
          "end": "2019-04-02"
        },
        "priority": {
          "coding": [
            {
              "code": "unknown",
              "system": "http://terminology.hl7.org/CodeSystem/data-absent-reason"
            }
          ]
        },
        "hospitalization": {
          "dischargeDisposition": {
            "coding": [
              {
                "code": "unknown",
                "system": "http://terminology.hl7.org/CodeSystem/data-absent-reason"
              }
            ]
          }
        },
        "subject": {
          "reference": "Patient/ea377416-4450-d765-db9b-56b3c15c917a"
        },
        "participant": [
          {
            "individual": {
              "reference": "Practitioner/fe04476b-a393-14f6-43e0-232f300708e5"
            }
          }
        ],
        "location": [
          {
            "location": {
              "reference": "Location/f1a23588-038e-4cdb-3c4d-6c06e83cfcfe"
            }
          }
        ]
      }
    },
    {
      "fullUrl": "urn:uuid:fe04476b-a393-14f6-43e0-232f300708e5",
      "resource": {
        "resourceType": "Practitioner",
        "id": "fe04476b-a393-14f6-43e0-232f300708e5",
        "meta": {
          "profile": [
            "http://hl7.org/fhir/us/core/StructureDefinition/us-core-practitioner"
          ]
        },
        "identifier": [
          {
            "system": "urn:oid:1.2.840.113619.21.1.139060385287897942.2.2",
            "value": "1839664557867350",
            "assigner": {
              "display": "31913-41995-12761042 Providers by PVID"
            }
          },
          {
            "system": "http://hl7.org/fhir/sid/us-npi",
            "_value": {
              "extension": [
                {
                  "url": "http://hl7.org/fhir/StructureDefinition/data-absent-reason",
                  "valueCode": "unknown"
                }
              ]
            },
            "assigner": {
              "display": "US National Provider Identifiers"
            }
          },
          {
            "system": "urn:oid:1.2.840.113619.21.1.139060385287897942.2.1",
            "value": "1647",
            "assigner": {
              "display": "31913-41995-12761042 Providers by DoctorFacility"
            }
          }
        ],
        "name": [
          {
            "family": "Midgett",
            "given": [
              "Regina"
            ]
          }
        ],
        "address": [
          {
            "line": [
              "Komed Holman Health Center",
              "4259 South Berkeley Avenue"
            ],
            "city": "Chicago",
            "state": "IL ",
            "country": "USA",
            "postalCode": "60653"
          }
        ],
        "telecom": [
          {
            "system": "phone",
            "value": "3123371073",
            "use": "work"
          },
          {
            "system": "phone",
            "value": "3133337676",
            "use": "mobile"
          }
        ]
      }
    },
    {
      "fullUrl": "urn:uuid:8241220d-203d-d193-9be5-4e734af71fce",
      "resource": {
        "resourceType": "Encounter",
        "id": "8241220d-203d-d193-9be5-4e734af71fce",
        "status": "finished",
        "class": {
          "code": "99201",
          "system": "http://www.ama-assn.org/go/cpt",
          "display": "Office Visit"
        },
        "identifier": [
          {
            "system": "urn:oid:1.2.840.113619.21.1.139060385287897942.9",
            "value": "Encounter/1857906924838580",
            "assigner": {
              "display": "31913-41995-12761042 API Resource Identifier"
            }
          }
        ],
        "period": {
          "start": "2018-11-15",
          "end": "2018-11-15"
        },
        "priority": {
          "coding": [
            {
              "code": "unknown",
              "system": "http://terminology.hl7.org/CodeSystem/data-absent-reason"
            }
          ]
        },
        "hospitalization": {
          "dischargeDisposition": {
            "coding": [
              {
                "code": "unknown",
                "system": "http://terminology.hl7.org/CodeSystem/data-absent-reason"
              }
            ]
          }
        },
        "subject": {
          "reference": "Patient/ea377416-4450-d765-db9b-56b3c15c917a"
        },
        "participant": [
          {
            "individual": {
              "reference": "Practitioner/1fb7d942-7e38-6c29-a618-35fc98579df7"
            }
          }
        ],
        "location": [
          {
            "location": {
              "reference": "Location/35599744-9c09-bdfc-c47e-2d4a0392ea18"
            }
          }
        ]
      }
    },
    {
      "fullUrl": "urn:uuid:1fb7d942-7e38-6c29-a618-35fc98579df7",
      "resource": {
        "resourceType": "Practitioner",
        "id": "1fb7d942-7e38-6c29-a618-35fc98579df7",
        "meta": {
          "profile": [
            "http://hl7.org/fhir/us/core/StructureDefinition/us-core-practitioner"
          ]
        },
        "identifier": [
          {
            "system": "urn:oid:1.2.840.113619.21.1.139060385287897942.2.2",
            "value": "1688979404007640",
            "assigner": {
              "display": "31913-41995-12761042 Providers by PVID"
            }
          },
          {
            "system": "http://hl7.org/fhir/sid/us-npi",
            "_value": {
              "extension": [
                {
                  "url": "http://hl7.org/fhir/StructureDefinition/data-absent-reason",
                  "valueCode": "unknown"
                }
              ]
            },
            "assigner": {
              "display": "US National Provider Identifiers"
            }
          },
          {
            "system": "urn:oid:1.2.840.113619.21.1.139060385287897942.2.1",
            "value": "898",
            "assigner": {
              "display": "31913-41995-12761042 Providers by DoctorFacility"
            }
          }
        ],
        "name": [
          {
            "family": "Lightbourne",
            "given": [
              "Amber"
            ]
          }
        ],
        "address": [
          {
            "line": [
              "1276 N Clybourn",
              "WM"
            ],
            "city": "Chicago",
            "state": "IIl",
            "country": "USA"
          }
        ],
        "telecom": [
          {
            "system": "phone",
            "value": "3123371073",
            "use": "work"
          },
          {
            "system": "phone",
            "value": "3123371073",
            "use": "mobile"
          }
        ]
      }
    },
    {
      "fullUrl": "urn:uuid:c89adda3-daab-f87e-db3c-c946cfb2ed14",
      "resource": {
        "resourceType": "Encounter",
        "id": "c89adda3-daab-f87e-db3c-c946cfb2ed14",
        "status": "finished",
        "class": {
          "code": "99201",
          "system": "http://www.ama-assn.org/go/cpt",
          "display": "Office Visit"
        },
        "identifier": [
          {
            "system": "urn:oid:1.2.840.113619.21.1.139060385287897942.9",
            "value": "Encounter/1852904265166980",
            "assigner": {
              "display": "31913-41995-12761042 API Resource Identifier"
            }
          }
        ],
        "period": {
          "start": "2018-09-18",
          "end": "2018-09-18"
        },
        "priority": {
          "coding": [
            {
              "code": "unknown",
              "system": "http://terminology.hl7.org/CodeSystem/data-absent-reason"
            }
          ]
        },
        "hospitalization": {
          "dischargeDisposition": {
            "coding": [
              {
                "code": "unknown",
                "system": "http://terminology.hl7.org/CodeSystem/data-absent-reason"
              }
            ]
          }
        },
        "subject": {
          "reference": "Patient/ea377416-4450-d765-db9b-56b3c15c917a"
        },
        "participant": [
          {
            "individual": {
              "reference": "Practitioner/1fb7d942-7e38-6c29-a618-35fc98579df7"
            }
          }
        ],
        "location": [
          {
            "location": {
              "reference": "Location/35599744-9c09-bdfc-c47e-2d4a0392ea18"
            }
          }
        ]
      }
    },
    {
      "fullUrl": "urn:uuid:3a371143-5926-a5f5-5f6f-f634fd1eaae5",
      "resource": {
        "resourceType": "Encounter",
        "id": "3a371143-5926-a5f5-5f6f-f634fd1eaae5",
        "status": "finished",
        "class": {
          "code": "99201",
          "system": "http://www.ama-assn.org/go/cpt",
          "display": "Office Visit"
        },
        "identifier": [
          {
            "system": "urn:oid:1.2.840.113619.21.1.139060385287897942.9",
            "value": "Encounter/1852904235160920",
            "assigner": {
              "display": "31913-41995-12761042 API Resource Identifier"
            }
          }
        ],
        "period": {
          "start": "2018-09-18",
          "end": "2018-09-18"
        },
        "priority": {
          "coding": [
            {
              "code": "unknown",
              "system": "http://terminology.hl7.org/CodeSystem/data-absent-reason"
            }
          ]
        },
        "hospitalization": {
          "dischargeDisposition": {
            "coding": [
              {
                "code": "unknown",
                "system": "http://terminology.hl7.org/CodeSystem/data-absent-reason"
              }
            ]
          }
        },
        "subject": {
          "reference": "Patient/ea377416-4450-d765-db9b-56b3c15c917a"
        },
        "participant": [
          {
            "individual": {
              "reference": "Practitioner/1fb7d942-7e38-6c29-a618-35fc98579df7"
            }
          }
        ],
        "location": [
          {
            "location": {
              "reference": "Location/35599744-9c09-bdfc-c47e-2d4a0392ea18"
            }
          }
        ]
      }
    },
    {
      "fullUrl": "urn:uuid:cb3f684d-6fbb-c1b5-3852-a21c997a35f9",
      "resource": {
        "resourceType": "Encounter",
        "id": "cb3f684d-6fbb-c1b5-3852-a21c997a35f9",
        "status": "finished",
        "class": {
          "code": "99201",
          "system": "http://www.ama-assn.org/go/cpt",
          "display": "Office Visit"
        },
        "identifier": [
          {
            "system": "urn:oid:1.2.840.113619.21.1.139060385287897942.9",
            "value": "Encounter/1848144603546080",
            "assigner": {
              "display": "31913-41995-12761042 API Resource Identifier"
            }
          }
        ],
        "period": {
          "start": "2018-07-25",
          "end": "2018-07-25"
        },
        "priority": {
          "coding": [
            {
              "code": "unknown",
              "system": "http://terminology.hl7.org/CodeSystem/data-absent-reason"
            }
          ]
        },
        "hospitalization": {
          "dischargeDisposition": {
            "coding": [
              {
                "code": "unknown",
                "system": "http://terminology.hl7.org/CodeSystem/data-absent-reason"
              }
            ]
          }
        },
        "subject": {
          "reference": "Patient/ea377416-4450-d765-db9b-56b3c15c917a"
        },
        "participant": [
          {
            "individual": {
              "reference": "Practitioner/b7cb653c-56d3-9ab1-ee6d-7326671ac45e"
            }
          }
        ],
        "location": [
          {
            "location": {
              "reference": "Location/889cae63-a0a1-0356-f839-44e3592a9a33"
            }
          }
        ]
      }
    },
    {
      "fullUrl": "urn:uuid:b7cb653c-56d3-9ab1-ee6d-7326671ac45e",
      "resource": {
        "resourceType": "Practitioner",
        "id": "b7cb653c-56d3-9ab1-ee6d-7326671ac45e",
        "meta": {
          "profile": [
            "http://hl7.org/fhir/us/core/StructureDefinition/us-core-practitioner"
          ]
        },
        "identifier": [
          {
            "system": "urn:oid:1.2.840.113619.21.1.139060385287897942.2.2",
            "value": "1831906828922920",
            "assigner": {
              "display": "31913-41995-12761042 Providers by PVID"
            }
          },
          {
            "system": "urn:oid:1.2.840.113619.21.1.139060385287897942.2.1",
            "value": "1612",
            "assigner": {
              "display": "31913-41995-12761042 Providers by DoctorFacility"
            }
          },
          {
            "system": "http://hl7.org/fhir/sid/us-npi",
            "value": "1508107657",
            "assigner": {
              "display": "US National Provider Identifiers"
            }
          },
          {
            "system": "urn:oid:2.16.840.1.113883.4.2",
            "value": "363197647",
            "assigner": {
              "display": "Federal Tax Identifier"
            }
          }
        ],
        "name": [
          {
            "family": "Kittisopikul",
            "given": [
              "Crystal"
            ]
          }
        ],
        "address": [
          {
            "line": [
              "Winfield Moody",
              "1276 N. Clybourn"
            ],
            "city": "Chicago",
            "state": "IL",
            "postalCode": "60610"
          }
        ],
        "telecom": [
          {
            "system": "phone",
            "value": "3123371073",
            "use": "work"
          },
          {
            "system": "phone",
            "value": "3123377616",
            "use": "mobile"
          }
        ]
      }
    },
    {
      "fullUrl": "urn:uuid:889cae63-a0a1-0356-f839-44e3592a9a33",
      "resource": {
        "resourceType": "Location",
        "id": "889cae63-a0a1-0356-f839-44e3592a9a33",
        "meta": {
          "profile": [
            "http://hl7.org/fhir/us/ecr/StructureDefinition/us-ph-location"
          ]
        },
        "identifier": [
          {
            "system": "urn:ietf:rfc:3986",
            "value": "urn:uuid:889cae63-a0a1-0356-f839-44e3592a9a33"
          }
        ],
        "_name": {
          "extension": [
            {
              "url": "http://hl7.org/fhir/StructureDefinition/data-absent-reason",
              "valueCode": "unknown"
            }
          ]
        },
        "address": {
          "line": [
            "30 West Chicago"
          ],
          "city": "Chicago",
          "state": "IL",
          "country": "USA",
          "postalCode": "60610"
        },
        "telecom": [
          {
            "system": "phone",
            "value": "3129263964",
            "use": "work"
          },
          {
            "system": "email",
            "value": "nnhsc.emrcoordinator@nm.org"
          }
        ],
        "type": [
          {
            "coding": [
              {
                "code": "unknown",
                "system": "http://terminology.hl7.org/CodeSystem/data-absent-reason"
              }
            ]
          }
        ]
      }
    },
    {
      "fullUrl": "urn:uuid:a1f8fef2-8e7d-31a0-405b-0f471e48de49",
      "resource": {
        "resourceType": "Encounter",
        "id": "a1f8fef2-8e7d-31a0-405b-0f471e48de49",
        "status": "finished",
        "class": {
          "code": "99201",
          "system": "http://www.ama-assn.org/go/cpt",
          "display": "Office Visit"
        },
        "identifier": [
          {
            "system": "urn:oid:1.2.840.113619.21.1.139060385287897942.9",
            "value": "Encounter/1843899613817250",
            "assigner": {
              "display": "31913-41995-12761042 API Resource Identifier"
            }
          }
        ],
        "period": {
          "start": "2018-06-06",
          "end": "2018-06-06"
        },
        "priority": {
          "coding": [
            {
              "code": "unknown",
              "system": "http://terminology.hl7.org/CodeSystem/data-absent-reason"
            }
          ]
        },
        "hospitalization": {
          "dischargeDisposition": {
            "coding": [
              {
                "code": "unknown",
                "system": "http://terminology.hl7.org/CodeSystem/data-absent-reason"
              }
            ]
          }
        },
        "subject": {
          "reference": "Patient/ea377416-4450-d765-db9b-56b3c15c917a"
        },
        "participant": [
          {
            "individual": {
              "reference": "Practitioner/48f667ba-481b-d116-e830-6ed088221db8"
            }
          }
        ],
        "location": [
          {
            "location": {
              "reference": "Location/f1a23588-038e-4cdb-3c4d-6c06e83cfcfe"
            }
          }
        ]
      }
    },
    {
      "fullUrl": "urn:uuid:48f667ba-481b-d116-e830-6ed088221db8",
      "resource": {
        "resourceType": "Practitioner",
        "id": "48f667ba-481b-d116-e830-6ed088221db8",
        "meta": {
          "profile": [
            "http://hl7.org/fhir/us/core/StructureDefinition/us-core-practitioner"
          ]
        },
        "identifier": [
          {
            "system": "urn:oid:1.2.840.113619.21.1.139060385287897942.2.2",
            "value": "1757592685652660",
            "assigner": {
              "display": "31913-41995-12761042 Providers by PVID"
            }
          },
          {
            "system": "urn:oid:1.2.840.113619.21.1.139060385287897942.2.1",
            "value": "1222",
            "assigner": {
              "display": "31913-41995-12761042 Providers by DoctorFacility"
            }
          },
          {
            "system": "http://hl7.org/fhir/sid/us-npi",
            "value": "1497072987",
            "assigner": {
              "display": "US National Provider Identifiers"
            }
          },
          {
            "system": "urn:oid:2.16.840.1.113883.4.2",
            "value": "363197647",
            "assigner": {
              "display": "Federal Tax Identifier"
            }
          }
        ],
        "name": [
          {
            "family": "Arendt",
            "given": [
              "Adam"
            ]
          }
        ],
        "address": [
          {
            "line": [
              "Komed Holman Health Center",
              "4259 South Berkeley Avenue"
            ],
            "city": "Chicago",
            "state": "IL",
            "postalCode": "60653"
          }
        ],
        "telecom": [
          {
            "system": "phone",
            "value": "7733371073",
            "use": "work"
          },
          {
            "system": "phone",
            "value": "7732689088",
            "use": "mobile"
          }
        ]
      }
    },
    {
      "fullUrl": "urn:uuid:9e9adf1a-222b-7a7a-8b50-d47644138a2c",
      "resource": {
        "resourceType": "CarePlan",
        "id": "9e9adf1a-222b-7a7a-8b50-d47644138a2c",
        "status": "unknown",
        "intent": "proposal",
        "subject": {
          "reference": "Patient/ea377416-4450-d765-db9b-56b3c15c917a"
        },
        "activity": [
          {
            "reference": {
              "reference": "ServiceRequest/c3a02171-e2a0-a9f0-7738-f4d2829607e2"
            }
          },
          {
            "reference": {
              "reference": "ServiceRequest/48f1bc2e-fc10-15aa-bd4f-12377392c03c"
            }
          }
        ]
      }
    },
    {
      "fullUrl": "urn:uuid:c3a02171-e2a0-a9f0-7738-f4d2829607e2",
      "resource": {
        "resourceType": "ServiceRequest",
        "id": "c3a02171-e2a0-a9f0-7738-f4d2829607e2",
        "identifier": [
          {
            "system": "urn:oid:1.2.840.113619.21.1.139060385287897942.9",
            "value": "DiagnosticOrder/1876487020970500",
            "assigner": {
              "display": " API Resource Identifier"
            }
          },
          {
            "system": "UNK",
            "value": "821115-3",
            "assigner": {
              "display": "Unknown"
            }
          }
        ],
        "status": "active",
        "intent": "plan",
        "code": {
          "coding": [
            {
              "code": "83036",
              "system": "http://www.ama-assn.org/go/cpt"
            }
          ],
          "text": "A1c"
        },
        "authoredOn": "2019-06-18T14:24:49.250-05:00",
        "subject": {
          "reference": "Patient/ea377416-4450-d765-db9b-56b3c15c917a"
        },
        "requester": {
          "reference": "Practitioner/8e3fb6f9-3ed0-58fb-5ebd-cc29919d7e2b"
        }
      }
    },
    {
      "fullUrl": "urn:uuid:8e3fb6f9-3ed0-58fb-5ebd-cc29919d7e2b",
      "resource": {
        "resourceType": "Practitioner",
        "id": "8e3fb6f9-3ed0-58fb-5ebd-cc29919d7e2b",
        "meta": {
          "profile": [
            "http://hl7.org/fhir/us/core/StructureDefinition/us-core-practitioner"
          ]
        },
        "identifier": [
          {
            "system": "urn:oid:1.2.840.113619.21.1.139060385287897942.2.2",
            "value": "1635684796000010",
            "assigner": {
              "display": " Providers by PVID"
            }
          },
          {
            "system": "urn:oid:1.2.840.113619.21.1.139060385287897942.2.1",
            "value": "8",
            "assigner": {
              "display": " Providers by DoctorFacility"
            }
          },
          {
            "system": "http://hl7.org/fhir/sid/us-npi",
            "value": "99999999-19",
            "assigner": {
              "display": "US National Provider Identifiers"
            }
          }
        ],
        "name": [
          {
            "family": "Alliance",
            "given": [
              "Admin"
            ]
          }
        ],
        "address": [
          {
            "line": [
              "215 W. Ohio Street",
              "4th Floor"
            ],
            "city": "Chicago",
            "state": "IL",
            "postalCode": "60654"
          }
        ],
        "telecom": [
          {
            "system": "phone",
            "value": "3122740068",
            "use": "work"
          },
          {
            "system": "phone",
            "value": "3122740069",
            "use": "mobile"
          }
        ]
      }
    },
    {
      "fullUrl": "urn:uuid:48f1bc2e-fc10-15aa-bd4f-12377392c03c",
      "resource": {
        "resourceType": "ServiceRequest",
        "id": "48f1bc2e-fc10-15aa-bd4f-12377392c03c",
        "identifier": [
          {
            "system": "urn:oid:1.2.840.113619.21.1.139060385287897942.9",
            "value": "DiagnosticOrder/1876487020970490",
            "assigner": {
              "display": " API Resource Identifier"
            }
          },
          {
            "system": "UNK",
            "value": "821115-2",
            "assigner": {
              "display": "Unknown"
            }
          }
        ],
        "status": "active",
        "intent": "plan",
        "code": {
          "coding": [
            {
              "code": "82274",
              "system": "http://www.ama-assn.org/go/cpt"
            }
          ],
          "text": "FIT Occult Blood, Stool Test"
        },
        "authoredOn": "2019-06-18T14:24:49.070-05:00",
        "subject": {
          "reference": "Patient/ea377416-4450-d765-db9b-56b3c15c917a"
        },
        "requester": {
          "reference": "Practitioner/eec2f44e-ee81-9c2c-9ea1-d40bb6b38878"
        }
      }
    },
    {
      "fullUrl": "urn:uuid:eec2f44e-ee81-9c2c-9ea1-d40bb6b38878",
      "resource": {
        "resourceType": "Practitioner",
        "id": "eec2f44e-ee81-9c2c-9ea1-d40bb6b38878",
        "meta": {
          "profile": [
            "http://hl7.org/fhir/us/core/StructureDefinition/us-core-practitioner"
          ]
        },
        "identifier": [
          {
            "system": "urn:oid:1.2.840.113619.21.1.139060385287897942.2.2",
            "value": "1635684796000010",
            "assigner": {
              "display": " Providers by PVID"
            }
          },
          {
            "system": "urn:oid:1.2.840.113619.21.1.139060385287897942.2.1",
            "value": "8",
            "assigner": {
              "display": " Providers by DoctorFacility"
            }
          },
          {
            "system": "http://hl7.org/fhir/sid/us-npi",
            "value": "99999999-19",
            "assigner": {
              "display": "US National Provider Identifiers"
            }
          }
        ],
        "name": [
          {
            "family": "Alliance",
            "given": [
              "Admin"
            ]
          }
        ],
        "address": [
          {
            "line": [
              "215 W. Ohio Street",
              "4th Floor"
            ],
            "city": "Chicago",
            "state": "IL",
            "postalCode": "60654"
          }
        ],
        "telecom": [
          {
            "system": "phone",
            "value": "3122740068",
            "use": "work"
          },
          {
            "system": "phone",
            "value": "3122740069",
            "use": "mobile"
          }
        ]
      }
    }
  ]
}