{
  "Status": "OK",
  "FhirResource": {
  "resourceType": "Bundle",
  "type": "batch",
  "entry": [
    {
      "fullUrl": "1899729054011780",
      "resource": {
        "resourceType": "Composition",
        "id": "1899729054011780",
        "meta": {
          "profile": [
            "http://hl7.org/fhir/us/ecr/StructureDefinition/eicr-composition"
          ]
        },
        "identifier": {
          "use": "official",
          "type": {
            "coding": [
              {
                "code": "55751-2",
                "system": "http://loinc.org",
                "display": "Initial Public Health Case Report"
              }
            ]
          }
        },
        "extension": [
          {
            "url": "http://hl7.org/fhir/StructureDefinition/composition-clinicaldocument-versionNumber"
          },
          {
            "url": "https://www.hl7.org/implement/standards/product_brief.cfm?product_id=436",
            "valueString": "2016-12-01"
          }
        ],
        "status": "final",
        "type": {
          "coding": [
            {
              "code": "55751-2",
              "system": "http://loinc.org",
              "display": "Initial Public Health Case Report"
            }
          ]
        },
        "date": "2020-03-13T14:30:54-05:00",
        "title": "Initial Public Health Case Report",
        "confidentiality": "N",
        "event": [
          {
            "period": {
              "start": "2020-03-13T14:30:54-05:00"
            }
          }
        ],
        "section": [
          {
            "id": "599e80d1-dd10-a8db-00dd-5d98517a7f7a",
            "title": "HISTORY OF PRESENT ILLNESS",
            "text": {
              "status": "generated",
              "div": "<paragraph xmlns=\"urn:hl7-org:v3\">No Information Available</paragraph>"
            },
            "code": {
              "coding": [
                {
                  "code": "10164-2",
                  "system": "http://loinc.org",
                  "display": "HISTORY OF PRESENT ILLNESS"
                }
              ]
            },
            "mode": "snapshot"
          },
          {
            "id": "557080b5-cbf5-d209-abfc-400ca60fae86",
            "title": "REASON FOR VISIT",
            "text": {
              "status": "generated",
              "div": "<paragraph xmlns=\"urn:hl7-org:v3\">No Information Available</paragraph>"
            },
            "code": {
              "coding": [
                {
                  "code": "29299-5",
                  "system": "http://loinc.org",
                  "display": "REASON FOR VISIT"
                }
              ]
            },
            "mode": "snapshot",
            "extension": [
              {
                "url": "http://hl7.org/fhir/cda/ccda/StructureDefinition/2.16.840.1.113883.10.20.22.2.12",
                "valueString": "No Information Available"
              }
            ]
          },
          {
            "id": "52ef27c7-0c59-eae8-5c4c-4912a793d7e0",
            "title": "SOCIAL HISTORY",
            "text": {
              "status": "generated",
              "div": "<paragraph xmlns=\"urn:hl7-org:v3\">No Information Available</paragraph>"
            },
            "code": {
              "coding": [
                {
                  "code": "29762-2",
                  "system": "http://loinc.org",
                  "display": "SOCIAL HISTORY"
                }
              ]
            },
            "mode": "snapshot"
          },
          {
            "id": "7415725c-b1ab-6ac0-55a0-b942ad23cb92",
            "title": "ENCOUNTERS",
            "text": {
              "status": "generated",
              "div": "<table border=\"1\" width=\"100%\" xmlns=\"urn:hl7-org:v3\"><thead><tr><th align=\"left\">Date</th><th align=\"left\">Type</th><th align=\"left\">Provider</th><th align=\"left\">Location</th><th align=\"left\">Encounter Diagnosis</th></tr></thead><tbody><tr ID=\"d27e13-1.2.840.113619.21.1.139060385287897942.10.1584127856704.75267\"><td>2020/02/06 - 2020/02/06</td><td> Ambulatory Encounter </td><td><list listType=\"unordered\"><item>Admin Alliance </item></list></td><td>Near North Health Service Corporation</td><td>UNK</td></tr><tr ID=\"d27e92-1.2.840.113619.21.1.139060385287897942.10.1584127856704.75267\"><td>2020/01/28 - 2020/01/28</td><td> Ambulatory Encounter </td><td><list listType=\"unordered\"><item>Fredrick Reid </item></list></td><td>Komed Holman Health Center</td><td>UNK</td></tr><tr ID=\"d27e171-1.2.840.113619.21.1.139060385287897942.10.1584127856704.75267\"><td>2020/01/02 - 2020/01/02</td><td> Ambulatory Encounter </td><td><list listType=\"unordered\"><item>Admin Alliance </item></list></td><td>Louise Landau Health Center</td><td>UNK</td></tr><tr ID=\"d27e250-1.2.840.113619.21.1.139060385287897942.10.1584127856704.75267\"><td>2019/10/23 - 2019/10/23</td><td> Ambulatory Encounter </td><td><list listType=\"unordered\"><item>Elizabeth Herzan-Taylor </item></list></td><td>Komed Holman Health Center</td><td>UNK</td></tr><tr ID=\"d27e332-1.2.840.113619.21.1.139060385287897942.10.1584127856704.75267\"><td>2019/10/23 - 2019/10/23</td><td> Ambulatory Encounter </td><td><list listType=\"unordered\"><item>Elizabeth Herzan-Taylor </item></list></td><td>Komed Holman Health Center</td><td>UNK</td></tr><tr ID=\"d27e414-1.2.840.113619.21.1.139060385287897942.10.1584127856704.75267\"><td>2019/10/01 - 2019/10/01</td><td> Ambulatory Encounter </td><td><list listType=\"unordered\"><item>Admin Alliance </item></list></td><td>Louise Landau Health Center</td><td>UNK</td></tr><tr ID=\"d27e497-1.2.840.113619.21.1.139060385287897942.10.1584127856704.75267\"><td>2019/10/01 - 2019/10/01</td><td> Ambulatory Encounter </td><td><list listType=\"unordered\"><item>Timothy Long </item><item>Admin Alliance </item></list></td><td>Komed Holman Health Center</td><td>UNK</td></tr><tr ID=\"d27e585-1.2.840.113619.21.1.139060385287897942.10.1584127856704.75267\"><td>2019/09/08 - 2019/09/08</td><td> Ambulatory Encounter </td><td><list listType=\"unordered\"><item>Care Coordination Desktop </item><item>LinkLogic </item></list></td><td>Near North Health Service Corporation</td><td>UNK</td></tr><tr ID=\"d27e673-1.2.840.113619.21.1.139060385287897942.10.1584127856704.75267\"><td>2019/09/17 - 2019/09/17</td><td> Ambulatory Encounter </td><td><list listType=\"unordered\"><item>Elizabeth Herzan-Taylor </item></list></td><td>Reavis School-based Health Center</td><td>UNK</td></tr><tr ID=\"d27e755-1.2.840.113619.21.1.139060385287897942.10.1584127856704.75267\"><td>2019/09/17 - 2019/09/17</td><td> Ambulatory Encounter </td><td><list listType=\"unordered\"><item>Elizabeth Herzan-Taylor </item></list></td><td>Reavis School-based Health Center</td><td>UNK</td></tr><tr ID=\"d27e837-1.2.840.113619.21.1.139060385287897942.10.1584127856704.75267\"><td>2019/09/17 - 2019/09/17</td><td> Ambulatory Encounter </td><td><list listType=\"unordered\"><item>Elizabeth Herzan-Taylor </item></list></td><td>Reavis School-based Health Center</td><td>UNK</td></tr><tr ID=\"d27e919-1.2.840.113619.21.1.139060385287897942.10.1584127856704.75267\"><td>2019/09/13 - 2019/09/13</td><td> Ambulatory Encounter </td><td><list listType=\"unordered\"><item>Rhonda Greyer </item></list></td><td>Sunnyside Health Center</td><td>UNK</td></tr><tr ID=\"d27e1001-1.2.840.113619.21.1.139060385287897942.10.1584127856704.75267\"><td>2019/08/30 - 2019/08/30</td><td> Ambulatory Encounter </td><td><list listType=\"unordered\"><item>Admin Alliance </item></list></td><td>Louise Landau Health Center</td><td><list listType=\"unordered\"><item>Gonorrhea, acute</item></list></td></tr><tr ID=\"d27e1083-1.2.840.113619.21.1.139060385287897942.10.1584127856704.75267\"><td>2019/07/22 - 2019/07/22</td><td> Ambulatory Encounter </td><td><list listType=\"unordered\"><item>Deina Nemiary </item><item>Admin Alliance </item></list></td><td>Winfield Moody Health Center</td><td>UNK</td></tr><tr ID=\"d27e1172-1.2.840.113619.21.1.139060385287897942.10.1584127856704.75267\"><td>2019/06/18 - 2019/06/18</td><td> Ambulatory Encounter </td><td><list listType=\"unordered\"><item>Admin Alliance </item></list></td><td>Louise Landau Health Center</td><td>UNK</td></tr><tr ID=\"d27e1254-1.2.840.113619.21.1.139060385287897942.10.1584127856704.75267\"><td>2019/05/01 - 2019/05/01</td><td> Ambulatory Encounter </td><td><list listType=\"unordered\"><item>Kristina Sorensen </item><item>Joel Carnazzo </item></list></td><td>Komed Holman Health Center</td><td>UNK</td></tr><tr ID=\"d27e1345-1.2.840.113619.21.1.139060385287897942.10.1584127856704.75267\"><td>2019/03/14 - 2019/03/14</td><td> Ambulatory Encounter </td><td><list listType=\"unordered\"><item>Regina Midgett </item></list></td><td>Komed Holman Health Center</td><td>UNK</td></tr><tr ID=\"d27e1428-1.2.840.113619.21.1.139060385287897942.10.1584127856704.75267\"><td>2018/11/15 - 2018/11/15</td><td> Ambulatory Encounter </td><td><list listType=\"unordered\"><item>Amber Lightbourne </item></list></td><td>Winfield Moody Health Center</td><td>UNK</td></tr><tr ID=\"d27e1508-1.2.840.113619.21.1.139060385287897942.10.1584127856704.75267\"><td>2018/09/18 - 2018/09/18</td><td> Ambulatory Encounter </td><td><list listType=\"unordered\"><item>Amber Lightbourne </item></list></td><td>Winfield Moody Health Center</td><td>UNK</td></tr><tr ID=\"d27e1590-1.2.840.113619.21.1.139060385287897942.10.1584127856704.75267\"><td>2018/09/18 - 2018/09/18</td><td> Ambulatory Encounter </td><td><list listType=\"unordered\"><item>Amber Lightbourne </item></list></td><td>Winfield Moody Health Center</td><td>UNK</td></tr><tr ID=\"d27e1672-1.2.840.113619.21.1.139060385287897942.10.1584127856704.75267\"><td>2018/07/25 - 2018/07/25</td><td> Ambulatory Encounter </td><td><list listType=\"unordered\"><item>Crystal Kittisopikul </item></list></td><td>Denny Community Health Center</td><td>UNK</td></tr><tr ID=\"d27e1752-1.2.840.113619.21.1.139060385287897942.10.1584127856704.75267\"><td>2018/06/06 - 2018/06/06</td><td> Ambulatory Encounter </td><td><list listType=\"unordered\"><item>Adam Arendt </item></list></td><td>Komed Holman Health Center</td><td>UNK</td></tr></tbody></table>"
            },
            "code": {
              "coding": [
                {
                  "code": "46240-8",
                  "system": "http://loinc.org",
                  "display": "ENCOUNTERS"
                }
              ]
            },
            "mode": "snapshot"
          },
          {
            "id": "0f230cca-f89a-12a7-6b7c-5b20e988a56e",
            "title": "TREATMENT PLAN",
            "text": {
              "status": "generated",
              "div": "<table border=\"1\" width=\"100%\" xmlns=\"urn:hl7-org:v3\"><thead><tr><th align=\"left\">Date</th><th align=\"left\">Name</th></tr></thead><tbody><tr><!--Planned Observation (V2)--><td align=\"left\">2019/06/18</td><td>A1c</td></tr><tr><!--Planned Observation (V2)--><td align=\"left\">2019/06/18</td><td>FIT Occult Blood, Stool Test</td></tr></tbody></table>"
            },
            "code": {
              "coding": [
                {
                  "code": "18776-5",
                  "system": "http://loinc.org",
                  "display": "TREATMENT PLAN"
                }
              ]
            },
            "mode": "snapshot",
            "entry": [
              {
                "reference": "CarePlan/9e9adf1a-222b-7a7a-8b50-d47644138a2c"
              }
            ]
          },
          {
            "id": "6f159f75-a29d-a5ea-8e95-79b94914c907",
            "title": "MEDICATIONS ADMINISTERED",
            "text": {
              "status": "generated",
              "div": "No Known MEDICATIONS ADMINISTERED"
            },
            "code": {
              "coding": [
                {
                  "code": "29549-3",
                  "system": "http://loinc.org",
                  "display": "MEDICATIONS ADMINISTERED"
                }
              ]
            },
            "mode": "snapshot",
            "entry": [
              {
                "reference": "MedicationAdministration/09e0e5d4-3fb4-f67b-a738-ddf8f4238ea5"
              }
            ]
          },
          {
            "id": "03a5bb63-a84c-bd1d-ef87-7cdd84bc3b55",
            "title": "Medications",
            "text": {
              "status": "generated",
              "div": "No Known Medication Information"
            },
            "code": {
              "coding": [
                {
                  "code": "10160-0",
                  "system": "http://loinc.org",
                  "display": "History of medication use Narrative"
                }
              ]
            },
            "mode": "snapshot"
          },
          {
            "id": "305dac8d-d8ca-f439-977f-7c5d62c39d4e",
            "title": "HISTORY OF IMMUNIZATIONS",
            "text": {
              "status": "generated",
              "div": "<paragraph xmlns=\"urn:hl7-org:v3\">No Information Available</paragraph>"
            },
            "code": {
              "coding": [
                {
                  "code": "11369-6",
                  "system": "http://loinc.org",
                  "display": "HISTORY OF IMMUNIZATIONS"
                }
              ]
            },
            "mode": "snapshot"
          },
          {
            "id": "a402f5ae-7716-64c8-6a8f-6d761b6668b1",
            "title": "PROBLEMS",
            "text": {
              "status": "generated",
              "div": "<table border=\"1\" width=\"100%\" xmlns=\"urn:hl7-org:v3\"><thead><tr><th align=\"left\">Condition</th><th align=\"left\">Status</th><th align=\"left\">Date</th><th align=\"left\">Provider</th><th align=\"left\">Notes</th></tr></thead><tbody><tr ID=\"d85e13-1.2.840.113619.21.1.139060385287897942.10.1584127856845.150779\"><td>Gonorrhea, acute</td><td>active</td><td>2019/08/30</td><td>Admin Alliance </td><td /></tr></tbody></table>"
            },
            "code": {
              "coding": [
                {
                  "code": "11450-4",
                  "system": "http://loinc.org",
                  "display": "PROBLEMS"
                }
              ]
            },
            "mode": "snapshot",
            "entry": [
              {
                "display": "Problem - ",
                "reference": "Condition/c77e90a3-c881-8e38-6f18-0fca7db20d56"
              }
            ]
          },
          {
            "id": "34a7faaa-cd0c-eb83-7710-a3f93d5e0cc5",
            "title": "RESULTS",
            "text": {
              "status": "generated",
              "div": "<table border=\"1\" width=\"100%\" xmlns=\"urn:hl7-org:v3\"><thead><tr><th align=\"left\">Date</th><th align=\"left\">Observation</th><th align=\"left\">Value</th><th align=\"left\">Provider</th><th align=\"left\">Reference Range</th><th align=\"left\">Interpretation</th><th align=\"left\">Location</th></tr></thead><tbody><tr ID=\"d29e13-1.2.840.113619.21.1.139060385287897942.10.1584127857423.313634\"><td align=\"left\">2019/09/27</td><td>chlamydia, nucleic acid amplification test (NAAT) result, urethra culture</td><td>NOT DETECTED</td><td>Admin Alliance </td><td /><td /><td /></tr><tr ID=\"d29e100-1.2.840.113619.21.1.139060385287897942.10.1584127857423.313634\"><td align=\"center\">\"</td><td>chlamydia, nucleic acid amplification test (NAAT) result, throat culture</td><td>NOT DETECTED</td><td>Admin Alliance </td><td /><td /><td /></tr><tr ID=\"d29e187-1.2.840.113619.21.1.139060385287897942.10.1584127857423.313634\"><td align=\"center\">\"</td><td>Chlamydia Rectal Nucleic acid amplification test (NAAT)</td><td>NOT DETECTED</td><td>Admin Alliance </td><td /><td /><td /></tr><tr ID=\"d29e274-1.2.840.113619.21.1.139060385287897942.10.1584127857423.313634\"><td align=\"center\">\"</td><td>MICROBE IDENTIFICATION</td><td>Negative</td><td>Admin Alliance </td><td /><td /><td /></tr><tr ID=\"d29e361-1.2.840.113619.21.1.139060385287897942.10.1584127857423.313634\"><td align=\"center\">\"</td><td>Neisseria gonorrhoeae, urethral culture</td><td>DETECTED</td><td>Admin Alliance </td><td /><td /><td /></tr><tr ID=\"d29e452-1.2.840.113619.21.1.139060385287897942.10.1584127857423.313634\"><td align=\"center\">\"</td><td>Neisseria gonorrhoeae, throat culture</td><td>DETECTED</td><td>Admin Alliance </td><td /><td /><td /></tr><tr ID=\"d29e540-1.2.840.113619.21.1.139060385287897942.10.1584127857423.313634\"><td align=\"center\">\"</td><td>Gonorrhea Culture Rectum</td><td>NOT DETECTED</td><td>Admin Alliance </td><td /><td /><td /></tr><tr ID=\"d29e627-1.2.840.113619.21.1.139060385287897942.10.1584127857423.313634\"><td align=\"center\">\"</td><td>Neisseria gonorrhoeae DNA probe</td><td>Positive</td><td>Admin Alliance </td><td /><td /><td /></tr></tbody></table>"
            },
            "code": {
              "coding": [
                {
                  "code": "30954-2",
                  "system": "http://loinc.org",
                  "display": "RESULTS"
                }
              ]
            },
            "mode": "snapshot",
            "entry": [
              {
                "reference": "Observation/7ea37105-1ac1-cd38-764b-2e39e6e68f69",
                "display": "chlamydia, nucleic acid amplification test (NAAT) result, urethra culture"
              },
              {
                "reference": "Observation/9fe67f48-f8ad-873d-3247-608da094b936",
                "display": "chlamydia, nucleic acid amplification test (NAAT) result, throat culture"
              },
              {
                "reference": "Observation/57e614e8-359c-fa8b-2168-ec93def3e31d",
                "display": "Chlamydia Rectal Nucleic acid amplification test (NAAT)"
              },
              {
                "reference": "Observation/a7e27fda-c763-de96-d489-9375d0adad40",
                "display": "MICROBE IDENTIFICATION"
              },
              {
                "reference": "Observation/ae7dcc09-ea9b-4df9-6151-ac1313350852",
                "display": "Neisseria gonorrhoeae, urethral culture"
              },
              {
                "reference": "Observation/6ab463a2-db27-4390-2543-a664d3878d85",
                "display": "Neisseria gonorrhoeae, throat culture"
              },
              {
                "reference": "Observation/964d5fd3-14da-bb7a-3d1e-8891af5af477",
                "display": "Gonorrhea Culture Rectum"
              },
              {
                "reference": "Observation/24819ebf-d5b4-683e-0110-660edae43ea2",
                "display": "Neisseria gonorrhoeae DNA probe"
              }
            ]
          }
        ],
        "subject": {
          "reference": "Patient/ea377416-4450-d765-db9b-56b3c15c917a"
        },
        "custodian": {
          "reference": "Organization/f1121cca-2fca-f2bf-c5d4-df22ebd6c14b"
        },
        "author": [
          {
            "reference": "Practitioner/406c3e36-d27a-041b-61a8-e29df69f50e1"
          },
          {
            "reference": "Device/48c756a8-18ae-5310-e8d7-2de6957e99b8"
          }
        ]
      },
      "request": {
        "method": "PUT",
        "url": "Composition/1899729054011780"
      }
    },
    {
      "fullUrl": "urn:uuid:f1121cca-2fca-f2bf-c5d4-df22ebd6c14b",
      "resource": {
        "resourceType": "Organization",
        "id": "f1121cca-2fca-f2bf-c5d4-df22ebd6c14b",
        "identifier": [
          {
            "system": "urn:oid:1.2.840.113619.21.1.139060385287897942.9",
            "value": "Organization/LO-0",
            "assigner": {
              "display": " API Resource Identifier"
            }
          },
          {
            "system": "UNK",
            "value": "LO-0",
            "assigner": {
              "display": "Organization Identifier"
            }
          },
          {
            "system": "urn:oid:2.16.840.1.113883.4.2",
            "value": "363197647",
            "assigner": {
              "display": "Tax ID number"
            }
          }
        ],
        "name": "Near North Health Service Corporation",
        "address": [
          {
            "line": [
              "1276 N Clybourn"
            ],
            "city": "Chicago",
            "state": "IL ",
            "country": "USA",
            "postalCode": "60610"
          }
        ],
        "telecom": [
          {
            "system": "phone",
            "value": "3123371073",
            "use": "work"
          }
        ]
      },
      "request": {
        "method": "PUT",
        "url": "Organization/f1121cca-2fca-f2bf-c5d4-df22ebd6c14b"
      }
    },
    {
      "fullUrl": "urn:uuid:406c3e36-d27a-041b-61a8-e29df69f50e1",
      "resource": {
        "resourceType": "Practitioner",
        "id": "406c3e36-d27a-041b-61a8-e29df69f50e1",
        "meta": {
          "profile": [
            "http://hl7.org/fhir/us/core/StructureDefinition/us-core-practitioner"
          ]
        },
        "identifier": [
          {
            "system": "urn:oid:1.2.840.113619.21.1.139060385287897942.2.2",
            "value": "1467041069000630",
            "assigner": {
              "display": " Providers by PVID"
            }
          },
          {
            "system": "urn:oid:1.2.840.113619.21.1.139060385287897942.2.1",
            "value": "365",
            "assigner": {
              "display": " Providers by DoctorFacility"
            }
          }
        ],
        "name": [
          {
            "family": "Nurse Desk",
            "given": [
              "KH WH"
            ]
          }
        ],
        "address": [
          {
            "line": [
              "Winfield Moody",
              "1276 N Clybourn"
            ],
            "city": "Chicago",
            "state": "IL",
            "postalCode": "60653"
          }
        ],
        "telecom": [
          {
            "system": "phone",
            "value": "3123371073",
            "use": "work"
          },
          {
            "system": "phone",
            "value": "3123377616",
            "use": "mobile"
          }
        ]
      },
      "request": {
        "method": "PUT",
        "url": "Practitioner/406c3e36-d27a-041b-61a8-e29df69f50e1"
      }
    },
    {
      "fullUrl": "urn:uuid:48c756a8-18ae-5310-e8d7-2de6957e99b8",
      "resource": {
        "resourceType": "Device",
        "id": "48c756a8-18ae-5310-e8d7-2de6957e99b8",
        "identifier": [
          {
            "system": "urn:ietf:rfc:3986",
            "value": "urn:oid:1.2.840.113619.21.1.139060385287897942.11"
          }
        ],
        "manufacturer": "12.3/9.12",
        "version": [
          {
            "value": "GE Healthcare API Server"
          }
        ],
        "property": [
          {
            "type": {
              "coding": [
                {
                  "system": "http://hl7.org/fhir/device-category",
                  "code": "software",
                  "display": "software"
                }
              ]
            }
          }
        ],
        "owner": {
          "reference": "Organization/f1121cca-2fca-f2bf-c5d4-df22ebd6c14b"
        }
      },
      "request": {
        "method": "PUT",
        "url": "Device/48c756a8-18ae-5310-e8d7-2de6957e99b8"
      }
    },
    {
      "fullUrl": "urn:uuid:ea377416-4450-d765-db9b-56b3c15c917a",
      "resource": {
        "resourceType": "Patient",
        "id": "ea377416-4450-d765-db9b-56b3c15c917a",
        "meta": {
          "profile": [
            "http://hl7.org/fhir/us/core/StructureDefinition/us-core-patient"
          ]
        },
        "identifier": [
          {
            "system": "urn:oid:1.2.840.113619.21.1.139060385287897942.2.1.1.1",
            "value": "1009843200000000"
          },
          {
            "system": "urn:oid:1.2.840.113619.21.1.139060385287897942.2.1.1.2",
            "value": "97531-ERXT999",
            "assigner": {
              "display": "GE EMR-CPS PatientId"
            }
          }
        ],
        "name": [
          {
            "use": "official",
            "family": "Test Patient",
            "given": [
              "Erx"
            ]
          }
        ],
        "birthDate": "1976-07-04",
        "deceasedBoolean": false,
        "gender": "male",
        "extension": [
          {
            "url": "http://hl7.org/fhir/us/core/StructureDefinition/us-core-race",
            "extension": [
              {
                "url": "ombCategory",
                "valueCoding": {
                  "system": "http://terminology.hl7.org/CodeSystem/v3-NullFlavor",
                  "code": "UNK",
                  "display": "Unknown"
                }
              },
              {
                "url": "text",
                "valueString": "Unknown"
              }
            ]
          },
          {
            "url": "http://hl7.org/fhir/us/core/StructureDefinition/us-core-ethnicity",
            "extension": [
              {
                "url": "ombCategory",
                "valueCoding": {
                  "system": "http://terminology.hl7.org/CodeSystem/v3-NullFlavor",
                  "code": "UNK",
                  "display": "Unknown"
                }
              },
              {
                "url": "text",
                "valueString": "Unknown"
              }
            ]
          }
        ],
        "address": [
          {
            "line": [
              "215 W Ohio",
              "Apt #1"
            ],
            "city": "Chicago",
            "state": "IL",
            "postalCode": "60654"
          }
        ],
        "communication": [
          {
            "language": {
              "coding": [
                {
                  "system": "urn:ietf:bcp:47"
                }
              ]
            },
            "preferred": true
          }
        ]
      },
      "request": {
        "method": "PUT",
        "url": "Patient/ea377416-4450-d765-db9b-56b3c15c917a"
      }
    },
    {
      "fullUrl": "urn:uuid:09e0e5d4-3fb4-f67b-a738-ddf8f4238ea5",
      "resource": {
        "resourceType": "MedicationAdministration",
        "id": "09e0e5d4-3fb4-f67b-a738-ddf8f4238ea5",
        "identifier": [
          {
            "system": "urn:ietf:rfc:3986",
            "value": "urn:oid:1.2.840.113619.21.1.139060385287897942.10.1584127856235.177862"
          }
        ],
        "status": "in-progress",
        "effectivePeriod": {
          "start": "1970-01-01T00:00:00",
          "end": "2020-03-13T14:30:56.235-05:00"
        },
        "subject": {
          "reference": "Patient/ea377416-4450-d765-db9b-56b3c15c917a"
        },
        "medicationReference": {
          "reference": "Medication/cfbe2a1a-c8da-ec09-57cb-0f4fdfc02412"
        }
      },
      "request": {
        "method": "PUT",
        "url": "MedicationAdministration/09e0e5d4-3fb4-f67b-a738-ddf8f4238ea5"
      }
    },
    {
      "fullUrl": "urn:uuid:cfbe2a1a-c8da-ec09-57cb-0f4fdfc02412",
      "resource": {
        "resourceType": "Medication",
        "id": "cfbe2a1a-c8da-ec09-57cb-0f4fdfc02412",
        "code": {
          "coding": [
            {
              "system": "http://www.nlm.nih.gov/research/umls/rxnorm"
            },
            {
              "code": "410942007",
              "system": "http://snomed.info/sct",
              "display": "drug or medication"
            }
          ]
        }
      },
      "request": {
        "method": "PUT",
        "url": "Medication/cfbe2a1a-c8da-ec09-57cb-0f4fdfc02412"
      }
    },
    {
      "fullUrl": "urn:uuid:b8d41cc1-4d07-5707-ef2d-e610f36aaf7f",
      "resource": {
        "resourceType": "MedicationStatement",
        "id": "b8d41cc1-4d07-5707-ef2d-e610f36aaf7f",
        "identifier": [
          {
            "system": "urn:ietf:rfc:3986",
            "value": "urn:oid:1.2.840.113619.21.1.139060385287897942.10.1584127856642.704700"
          }
        ],
        "status": "active",
        "effectivePeriod": {
          "start": "1970-01-01T00:00:00",
          "end": "2020-03-13T14:30:56.642-05:00"
        },
        "subject": {
          "reference": "Patient/ea377416-4450-d765-db9b-56b3c15c917a"
        },
        "medicationReference": {
          "reference": "Medication/7aac82f7-ba27-ce20-5c07-1fe404651f99"
        }
      },
      "request": {
        "method": "PUT",
        "url": "MedicationStatement/b8d41cc1-4d07-5707-ef2d-e610f36aaf7f"
      }
    },
    {
      "fullUrl": "urn:uuid:7aac82f7-ba27-ce20-5c07-1fe404651f99",
      "resource": {
        "resourceType": "Medication",
        "id": "7aac82f7-ba27-ce20-5c07-1fe404651f99",
        "code": {
          "coding": [
            {
              "system": "http://www.nlm.nih.gov/research/umls/rxnorm"
            },
            {
              "code": "410942007",
              "system": "http://snomed.info/sct",
              "display": "drug or medication"
            }
          ]
        }
      },
      "request": {
        "method": "PUT",
        "url": "Medication/7aac82f7-ba27-ce20-5c07-1fe404651f99"
      }
    },
    {
      "fullUrl": "urn:uuid:c77e90a3-c881-8e38-6f18-0fca7db20d56",
      "resource": {
        "resourceType": "Condition",
        "id": "c77e90a3-c881-8e38-6f18-0fca7db20d56",
        "identifier": [
          {
            "system": "urn:oid:1.2.840.113619.21.1.139060385287897942.9",
            "value": "Condition/1882804434611020",
            "assigner": {
              "display": "31913-41995-12761042 API Resource Identifier"
            }
          }
        ],
        "category": [
          {
            "coding": [
              {
                "code": "problem-item-list",
                "display": "Problem List Item",
                "system": "http://hl7.org/fhir/us/core/ValueSet/us-core-condition-category"
              }
            ]
          }
        ],
        "code": {
          "coding": [
            {
              "code": "15628003",
              "system": "http://snomed.info/sct",
              "display": "Gonorrhea, acute"
            },
            {
              "code": "A54.9",
              "system": "2.16.840.1.113883.6.90"
            },
            {
              "code": "098.0",
              "system": "2.16.840.1.113883.6.103"
            },
            {
              "code": "ICD-098.0",
              "system": "1.2.840.113619.21.1.139060385287897942.2.1.1.4"
            }
          ],
          "text": "Gonorrhea, acute"
        },
        "onsetDateTime": "2019-08-30T00:00:00-05:00",
        "subject": {
          "reference": "Patient/ea377416-4450-d765-db9b-56b3c15c917a"
        }
      },
      "request": {
        "method": "PUT",
        "url": "Condition/c77e90a3-c881-8e38-6f18-0fca7db20d56"
      }
    },
    {
      "fullUrl": "urn:uuid:67e2b289-1fab-a613-ddb9-45c38a666738",
      "resource": {
        "resourceType": "DiagnosticReport",
        "id": "67e2b289-1fab-a613-ddb9-45c38a666738",
        "identifier": [
          {
            "system": "urn:oid:1.2.840.113619.21.1.139060385287897942.9",
            "value": "Observation/1885543262278850",
            "assigner": {
              "display": "31913-41995-12761042 API Resource Identifier"
            }
          }
        ],
        "status": "final",
        "code": {
          "coding": [
            {
              "code": "30954-2",
              "system": "http://loinc.org",
              "display": "RESULTS"
            }
          ]
        },
        "subject": {
          "reference": "Patient/ea377416-4450-d765-db9b-56b3c15c917a"
        },
        "result": [
          {
            "reference": "Observation/7ea37105-1ac1-cd38-764b-2e39e6e68f69"
          },
          {
            "reference": "Observation/9fe67f48-f8ad-873d-3247-608da094b936"
          },
          {
            "reference": "Observation/57e614e8-359c-fa8b-2168-ec93def3e31d"
          },
          {
            "reference": "Observation/a7e27fda-c763-de96-d489-9375d0adad40"
          },
          {
            "reference": "Observation/ae7dcc09-ea9b-4df9-6151-ac1313350852"
          },
          {
            "reference": "Observation/6ab463a2-db27-4390-2543-a664d3878d85"
          },
          {
            "reference": "Observation/964d5fd3-14da-bb7a-3d1e-8891af5af477"
          },
          {
            "reference": "Observation/24819ebf-d5b4-683e-0110-660edae43ea2"
          }
        ]
      },
      "request": {
        "method": "PUT",
        "url": "DiagnosticReport/67e2b289-1fab-a613-ddb9-45c38a666738"
      }
    },
    {
      "fullUrl": "urn:uuid:7ea37105-1ac1-cd38-764b-2e39e6e68f69",
      "resource": {
        "resourceType": "Observation",
        "id": "7ea37105-1ac1-cd38-764b-2e39e6e68f69",
        "meta": {
          "profile": [
            "http://hl7.org/fhir/us/ecr/StructureDefinition/us-ph-lab-result-observation"
          ]
        },
        "identifier": [
          {
            "system": "urn:oid:1.2.840.113619.21.1.139060385287897942.9",
            "value": "Observation/1885543262278850",
            "assigner": {
              "display": "31913-41995-12761042 API Resource Identifier"
            }
          }
        ],
        "category": [
          {
            "coding": [
              {
                "system": "http://terminology.hl7.org/CodeSystem/observation-category",
                "code": "laboratory"
              }
            ]
          }
        ],
        "status": "final",
        "code": {
          "coding": [
            {
              "code": "314330",
              "system": "1.2.840.113619.21.100.12.1053.139060385287897942",
              "display": "CHLAMURETHRA"
            }
          ],
          "text": "chlamydia, nucleic acid amplification test (NAAT) result, urethra culture"
        },
        "effectiveDateTime": "2019-09-27T09:52:20-05:00",
        "valueString": "NOT DETECTED",
        "subject": {
          "reference": "Patient/ea377416-4450-d765-db9b-56b3c15c917a"
        }
      },
      "request": {
        "method": "PUT",
        "url": "Observation/7ea37105-1ac1-cd38-764b-2e39e6e68f69"
      }
    },
    {
      "fullUrl": "urn:uuid:9fe67f48-f8ad-873d-3247-608da094b936",
      "resource": {
        "resourceType": "Observation",
        "id": "9fe67f48-f8ad-873d-3247-608da094b936",
        "meta": {
          "profile": [
            "http://hl7.org/fhir/us/ecr/StructureDefinition/us-ph-lab-result-observation"
          ]
        },
        "identifier": [
          {
            "system": "urn:oid:1.2.840.113619.21.1.139060385287897942.9",
            "value": "Observation/1885543262278830",
            "assigner": {
              "display": "31913-41995-12761042 API Resource Identifier"
            }
          }
        ],
        "category": [
          {
            "coding": [
              {
                "system": "http://terminology.hl7.org/CodeSystem/observation-category",
                "code": "laboratory"
              }
            ]
          }
        ],
        "status": "final",
        "code": {
          "coding": [
            {
              "code": "314329",
              "system": "1.2.840.113619.21.100.12.1053.139060385287897942",
              "display": "CHLAMTHROAT"
            }
          ],
          "text": "chlamydia, nucleic acid amplification test (NAAT) result, throat culture"
        },
        "effectiveDateTime": "2019-09-27T09:52:20-05:00",
        "valueString": "NOT DETECTED",
        "subject": {
          "reference": "Patient/ea377416-4450-d765-db9b-56b3c15c917a"
        }
      },
      "request": {
        "method": "PUT",
        "url": "Observation/9fe67f48-f8ad-873d-3247-608da094b936"
      }
    },
    {
      "fullUrl": "urn:uuid:57e614e8-359c-fa8b-2168-ec93def3e31d",
      "resource": {
        "resourceType": "Observation",
        "id": "57e614e8-359c-fa8b-2168-ec93def3e31d",
        "meta": {
          "profile": [
            "http://hl7.org/fhir/us/ecr/StructureDefinition/us-ph-lab-result-observation"
          ]
        },
        "identifier": [
          {
            "system": "urn:oid:1.2.840.113619.21.1.139060385287897942.9",
            "value": "Observation/1885543262278810",
            "assigner": {
              "display": "31913-41995-12761042 API Resource Identifier"
            }
          }
        ],
        "category": [
          {
            "coding": [
              {
                "system": "http://terminology.hl7.org/CodeSystem/observation-category",
                "code": "laboratory"
              }
            ]
          }
        ],
        "status": "final",
        "code": {
          "coding": [
            {
              "code": "117631",
              "system": "1.2.840.113619.21.100.12.1053.139060385287897942",
              "display": "CHLAMRECNAAT"
            }
          ],
          "text": "Chlamydia Rectal Nucleic acid amplification test (NAAT)"
        },
        "effectiveDateTime": "2019-09-27T09:52:20-05:00",
        "valueString": "NOT DETECTED",
        "subject": {
          "reference": "Patient/ea377416-4450-d765-db9b-56b3c15c917a"
        }
      },
      "request": {
        "method": "PUT",
        "url": "Observation/57e614e8-359c-fa8b-2168-ec93def3e31d"
      }
    },
    {
      "fullUrl": "urn:uuid:a7e27fda-c763-de96-d489-9375d0adad40",
      "resource": {
        "resourceType": "Observation",
        "id": "a7e27fda-c763-de96-d489-9375d0adad40",
        "meta": {
          "profile": [
            "http://hl7.org/fhir/us/ecr/StructureDefinition/us-ph-lab-result-observation"
          ]
        },
        "identifier": [
          {
            "system": "urn:oid:1.2.840.113619.21.1.139060385287897942.9",
            "value": "Observation/1885543262278790",
            "assigner": {
              "display": "31913-41995-12761042 API Resource Identifier"
            }
          }
        ],
        "category": [
          {
            "coding": [
              {
                "system": "http://terminology.hl7.org/CodeSystem/observation-category",
                "code": "laboratory"
              }
            ]
          }
        ],
        "status": "final",
        "code": {
          "coding": [
            {
              "code": "2716",
              "system": "1.2.840.113619.21.100.12.1053.139060385287897942",
              "display": "CHLAM DNA PR"
            }
          ],
          "text": "MICROBE IDENTIFICATION"
        },
        "effectiveDateTime": "2019-09-27T09:52:20-05:00",
        "valueString": "Negative",
        "subject": {
          "reference": "Patient/ea377416-4450-d765-db9b-56b3c15c917a"
        }
      },
      "request": {
        "method": "PUT",
        "url": "Observation/a7e27fda-c763-de96-d489-9375d0adad40"
      }
    },
    {
      "fullUrl": "urn:uuid:ae7dcc09-ea9b-4df9-6151-ac1313350852",
      "resource": {
        "resourceType": "Observation",
        "id": "ae7dcc09-ea9b-4df9-6151-ac1313350852",
        "meta": {
          "profile": [
            "http://hl7.org/fhir/us/ecr/StructureDefinition/us-ph-lab-result-observation"
          ]
        },
        "identifier": [
          {
            "system": "urn:oid:1.2.840.113619.21.1.139060385287897942.9",
            "value": "Observation/1885543262278770",
            "assigner": {
              "display": "31913-41995-12761042 API Resource Identifier"
            }
          }
        ],
        "category": [
          {
            "coding": [
              {
                "system": "http://terminology.hl7.org/CodeSystem/observation-category",
                "code": "laboratory"
              }
            ]
          }
        ],
        "status": "final",
        "code": {
          "coding": [
            {
              "code": "24111-7",
              "system": "http://loinc.org",
              "display": "Neisseria gonorrhoeae DNA [Presence] in Unspecified specimen by NAA with probe detection"
            },
            {
              "code": "3552",
              "system": "1.2.840.113619.21.100.12.1053.139060385287897942",
              "display": "GC-URETHRA"
            }
          ],
          "text": "Neisseria gonorrhoeae, urethral culture"
        },
        "effectiveDateTime": "2019-09-27T09:52:20-05:00",
        "valueString": "DETECTED",
        "subject": {
          "reference": "Patient/ea377416-4450-d765-db9b-56b3c15c917a"
        }
      },
      "request": {
        "method": "PUT",
        "url": "Observation/ae7dcc09-ea9b-4df9-6151-ac1313350852"
      }
    },
    {
      "fullUrl": "urn:uuid:6ab463a2-db27-4390-2543-a664d3878d85",
      "resource": {
        "resourceType": "Observation",
        "id": "6ab463a2-db27-4390-2543-a664d3878d85",
        "meta": {
          "profile": [
            "http://hl7.org/fhir/us/ecr/StructureDefinition/us-ph-lab-result-observation"
          ]
        },
        "identifier": [
          {
            "system": "urn:oid:1.2.840.113619.21.1.139060385287897942.9",
            "value": "Observation/1885543262278750",
            "assigner": {
              "display": "31913-41995-12761042 API Resource Identifier"
            }
          }
        ],
        "category": [
          {
            "coding": [
              {
                "system": "http://terminology.hl7.org/CodeSystem/observation-category",
                "code": "laboratory"
              }
            ]
          }
        ],
        "status": "final",
        "code": {
          "coding": [
            {
              "code": "3553",
              "system": "1.2.840.113619.21.100.12.1053.139060385287897942",
              "display": "GC-THROAT"
            }
          ],
          "text": "Neisseria gonorrhoeae, throat culture"
        },
        "effectiveDateTime": "2019-09-27T09:52:20-05:00",
        "valueString": "DETECTED",
        "subject": {
          "reference": "Patient/ea377416-4450-d765-db9b-56b3c15c917a"
        }
      },
      "request": {
        "method": "PUT",
        "url": "Observation/6ab463a2-db27-4390-2543-a664d3878d85"
      }
    },
    {
      "fullUrl": "urn:uuid:964d5fd3-14da-bb7a-3d1e-8891af5af477",
      "resource": {
        "resourceType": "Observation",
        "id": "964d5fd3-14da-bb7a-3d1e-8891af5af477",
        "meta": {
          "profile": [
            "http://hl7.org/fhir/us/ecr/StructureDefinition/us-ph-lab-result-observation"
          ]
        },
        "identifier": [
          {
            "system": "urn:oid:1.2.840.113619.21.1.139060385287897942.9",
            "value": "Observation/1885543262278730",
            "assigner": {
              "display": "31913-41995-12761042 API Resource Identifier"
            }
          }
        ],
        "category": [
          {
            "coding": [
              {
                "system": "http://terminology.hl7.org/CodeSystem/observation-category",
                "code": "laboratory"
              }
            ]
          }
        ],
        "status": "final",
        "code": {
          "coding": [
            {
              "code": "12700004",
              "system": "1.2.840.113619.21.100.12.1053.139060385287897942",
              "display": "GC RECTUM"
            }
          ],
          "text": "Gonorrhea Culture Rectum"
        },
        "effectiveDateTime": "2019-09-27T09:52:20-05:00",
        "valueString": "NOT DETECTED",
        "subject": {
          "reference": "Patient/ea377416-4450-d765-db9b-56b3c15c917a"
        }
      },
      "request": {
        "method": "PUT",
        "url": "Observation/964d5fd3-14da-bb7a-3d1e-8891af5af477"
      }
    },
    {
      "fullUrl": "urn:uuid:24819ebf-d5b4-683e-0110-660edae43ea2",
      "resource": {
        "resourceType": "Observation",
        "id": "24819ebf-d5b4-683e-0110-660edae43ea2",
        "meta": {
          "profile": [
            "http://hl7.org/fhir/us/ecr/StructureDefinition/us-ph-lab-result-observation"
          ]
        },
        "identifier": [
          {
            "system": "urn:oid:1.2.840.113619.21.1.139060385287897942.9",
            "value": "Observation/1885543262278710",
            "assigner": {
              "display": "31913-41995-12761042 API Resource Identifier"
            }
          }
        ],
        "category": [
          {
            "coding": [
              {
                "system": "http://terminology.hl7.org/CodeSystem/observation-category",
                "code": "laboratory"
              }
            ]
          }
        ],
        "status": "final",
        "code": {
          "coding": [
            {
              "code": "24111-7",
              "system": "http://loinc.org",
              "display": "Neisseria gonorrhoeae DNA [Presence] in Unspecified specimen by NAA with probe detection"
            },
            {
              "code": "2719",
              "system": "1.2.840.113619.21.100.12.1053.139060385287897942",
              "display": "GC DNA PROBE"
            }
          ],
          "text": "Neisseria gonorrhoeae DNA probe"
        },
        "effectiveDateTime": "2019-09-27T09:52:20-05:00",
        "valueString": "Positive",
        "subject": {
          "reference": "Patient/ea377416-4450-d765-db9b-56b3c15c917a"
        }
      },
      "request": {
        "method": "PUT",
        "url": "Observation/24819ebf-d5b4-683e-0110-660edae43ea2"
      }
    },
    {
      "fullUrl": "urn:uuid:9e9adf1a-222b-7a7a-8b50-d47644138a2c",
      "resource": {
        "resourceType": "CarePlan",
        "id": "9e9adf1a-222b-7a7a-8b50-d47644138a2c",
        "status": "unknown",
        "intent": "proposal",
        "subject": {
          "reference": "Patient/ea377416-4450-d765-db9b-56b3c15c917a"
        },
        "activity": [
          {
            "reference": {
              "reference": "ServiceRequest/c3a02171-e2a0-a9f0-7738-f4d2829607e2"
            }
          },
          {
            "reference": {
              "reference": "ServiceRequest/48f1bc2e-fc10-15aa-bd4f-12377392c03c"
            }
          }
        ]
      },
      "request": {
        "method": "PUT",
        "url": "CarePlan/9e9adf1a-222b-7a7a-8b50-d47644138a2c"
      }
    },
    {
      "fullUrl": "urn:uuid:c3a02171-e2a0-a9f0-7738-f4d2829607e2",
      "resource": {
        "resourceType": "ServiceRequest",
        "id": "c3a02171-e2a0-a9f0-7738-f4d2829607e2",
        "identifier": [
          {
            "system": "urn:oid:1.2.840.113619.21.1.139060385287897942.9",
            "value": "DiagnosticOrder/1876487020970500",
            "assigner": {
              "display": " API Resource Identifier"
            }
          },
          {
            "system": "UNK",
            "value": "821115-3",
            "assigner": {
              "display": "Unknown"
            }
          }
        ],
        "status": "active",
        "code": {
          "coding": [
            {
              "code": "83036",
              "system": "http://www.ama-assn.org/go/cpt",
              "display": "A1c"
            }
          ],
          "text": "A1c"
        },
        "authoredOn": "2019-06-18T14:24:49.250-05:00",
        "subject": {
          "reference": "Patient/ea377416-4450-d765-db9b-56b3c15c917a"
        },
        "requester": {
          "reference": "Practitioner/8e3fb6f9-3ed0-58fb-5ebd-cc29919d7e2b"
        }
      },
      "request": {
        "method": "PUT",
        "url": "ServiceRequest/c3a02171-e2a0-a9f0-7738-f4d2829607e2"
      }
    },
    {
      "fullUrl": "urn:uuid:",
      "resource": {
        "resourceType": "Practitioner",
        "meta": {
          "profile": [
            "http://hl7.org/fhir/us/core/StructureDefinition/us-core-practitioner"
          ]
        }
      },
      "request": {
        "method": "PUT",
        "url": "Practitioner/"
      }
    },
    {
      "fullUrl": "urn:uuid:48f1bc2e-fc10-15aa-bd4f-12377392c03c",
      "resource": {
        "resourceType": "ServiceRequest",
        "id": "48f1bc2e-fc10-15aa-bd4f-12377392c03c",
        "identifier": [
          {
            "system": "urn:oid:1.2.840.113619.21.1.139060385287897942.9",
            "value": "DiagnosticOrder/1876487020970490",
            "assigner": {
              "display": " API Resource Identifier"
            }
          },
          {
            "system": "UNK",
            "value": "821115-2",
            "assigner": {
              "display": "Unknown"
            }
          }
        ],
        "status": "active",
        "code": {
          "coding": [
            {
              "code": "82274",
              "system": "http://www.ama-assn.org/go/cpt",
              "display": "FIT Occult Blood, Stool Test"
            }
          ],
          "text": "FIT Occult Blood, Stool Test"
        },
        "authoredOn": "2019-06-18T14:24:49.070-05:00",
        "subject": {
          "reference": "Patient/ea377416-4450-d765-db9b-56b3c15c917a"
        },
        "requester": {
          "reference": "Practitioner/eec2f44e-ee81-9c2c-9ea1-d40bb6b38878"
        }
      },
      "request": {
        "method": "PUT",
        "url": "ServiceRequest/48f1bc2e-fc10-15aa-bd4f-12377392c03c"
      }
    }
  ]
}
}