{
  "Status": "OK",
  "FhirResource": {
  "resourceType": "Bundle",
  "type": "batch",
  "entry": [
    {
      "fullUrl": "urn:oid:1.2.840.114350.1.13.229.2.7.8.688883.252017556",
      "resource": {
        "resourceType": "Composition",
        "id": "1.2.840.114350.1.13.229.2.7.8.688883.252017556",
        "meta": {
          "profile": [
            "http://hl7.org/fhir/us/ecr/StructureDefinition/eicr-composition"
          ]
        },
        "identifier": {
          "use": "official",
          "type": {
            "coding": [
              {
                "code": "55751-2",
                "system": "http://loinc.org",
                "display": "Initial Public Health Case Report"
              }
            ]
          },
          "value": "00000000-55d4-d6b1-c12e-cfc613fad19c",
          "assigner": {
            "display": "EPC"
          }
        },
        "extension": [
          {
            "url": "http://hl7.org/fhir/StructureDefinition/composition-clinicaldocument-versionNumber",
            "valueString": "2"
          },
          {
            "url": "https://www.hl7.org/implement/standards/product_brief.cfm?product_id=436",
            "valueString": "2016-12-01"
          }
        ],
        "status": "final",
        "type": {
          "coding": [
            {
              "code": "55751-2",
              "system": "http://loinc.org",
              "display": "Initial Public Health Case Report"
            }
          ]
        },
        "date": "2023-12-08T18:57:09-05:00",
        "title": "Initial Public Health Case Report",
        "confidentiality": "N",
        "subject": {
          "reference": "Patient/fe5159cd-f357-4d8d-b3cb-f82c9b956b4e"
        },
        "relatesTo": [
          {
            "code": "replaces",
            "targetReference": {
              "reference": "Composition/1.2.840.114350.1.13.229.2.7.8.688883.251933458"
            },
            "extension": [
              {
                "url": "http://hl7.org/fhir/StructureDefinition/composition-clinicaldocument-versionNumber",
                "valueString": "1"
              }
            ]
          }
        ],
        "encounter": {
          "reference": "Encounter/222e50db-4b84-bab2-cdab-626270d447c3"
        },
        "custodian": {
          "reference": "Organization/fb25dc9c-f467-4b2a-17fd-fa0fb28899a8"
        },
        "author": [
          {
            "reference": "PractitionerRole/11437b38-2b43-cdce-22b3-0ee51b352178"
          },
          {
            "reference": "Device/4d263995-2463-9b34-9dfd-df67826fef3e"
          }
        ]
      },
      "request": {
        "method": "PUT",
        "url": "Composition/1.2.840.114350.1.13.229.2.7.8.688883.252017556"
      }
    },
    {
      "fullUrl": "urn:uuid:222e50db-4b84-bab2-cdab-626270d447c3",
      "resource": {
        "resourceType": "Encounter",
        "id": "222e50db-4b84-bab2-cdab-626270d447c3",
        "status": "unknown",
        "class": {
          "code": "EMER",
          "system": "2.16.840.1.113883.5.4",
          "display": "Emergency"
        },
        "identifier": [
          {
            "system": "urn:oid:1.2.840.114350.1.13.229.2.7.3.698084.8",
            "value": "1158718388"
          }
        ],
        "period": {
          "start": "2023-12-08T11:18:00-05:00",
          "end": "2023-12-08T14:55:00-05:00"
        },
        "hospitalization": {
          "dischargeDisposition": {
            "coding": [
              {
                "code": "1",
                "system": "1.2.840.114350.1.13.229.2.7.4.698084.18888",
                "display": "Home or Self Care"
              }
            ]
          }
        },
        "subject": {
          "reference": "Patient/fe5159cd-f357-4d8d-b3cb-f82c9b956b4e"
        },
        "location": [
          {
            "id": "1.2.840.114350.1.13.229.2.7.2.686980",
            "location": {
              "reference": "Location/d4fbb125-b273-fd92-be8a-317c08367485",
              "display": "Fake City Emergency"
            },
            "extension": [
              {
                "url": "http://build.fhir.org/ig/HL7/case-reporting/StructureDefinition-us-ph-location-definitions.html#Location.type",
                "valueCodeableConcept": {
                  "coding": [
                    {
                      "code": "1108-0",
                      "system": "2.16.840.1.113883.6.259",
                      "display": "Emergency Department"
                    },
                    {
                      "code": "17",
                      "system": "1.2.840.114350.1.72.1.7.7.10.688867.4150",
                      "display": "Emergency Medicine"
                    }
                  ],
                  "text": "Emergency Medicine"
                }
              }
            ]
          }
        ],
        "serviceProvider": {
          "reference": "Organization/19ee0e46-9d6f-14db-e61d-e68ba7e027f2"
        },
        "participant": [
          {
            "type": [
              {
                "coding": [
                  {
                    "system": "http://terminology.hl7.org/CodeSystem/v3-ParticipationType",
                    "code": "ATND"
                  }
                ]
              }
            ],
            "individual": {
              "reference": "PractitionerRole/cbb6afca-3724-003a-d54f-e9c4ac1df345"
            }
          },
          {
            "type": [
              {
                "coding": [
                  {
                    "system": "http://terminology.hl7.org/CodeSystem/v3-ParticipationType",
                    "code": "ATND"
                  }
                ]
              }
            ],
            "period": {
              "start": "2023-12-08T11:18:00-05:00"
            },
            "individual": {
              "reference": "PractitionerRole/6eccbce2-9da5-0825-c932-f1393856e272"
            }
          }
        ]
      },
      "request": {
        "method": "PUT",
        "url": "Encounter/222e50db-4b84-bab2-cdab-626270d447c3"
      }
    },
    {
      "fullUrl": "urn:uuid:d4fbb125-b273-fd92-be8a-317c08367485",
      "resource": {
        "resourceType": "Location",
        "id": "d4fbb125-b273-fd92-be8a-317c08367485",
        "identifier": [
          {
            "system": "urn:oid:1.2.840.114350.1.13.229.2.7.2.686980",
            "value": "100202701"
          }
        ],
        "name": "Fake City Emergency",
        "address": {
          "use": "work",
          "line": [
            "One 1002 Healthcare Drive Dr."
          ],
          "city": "Fake City",
          "state": "ZZ",
          "country": "USA",
          "postalCode": "99999",
          "district": "Fake County"
        },
        "telecom": [
          {
            "system": "phone",
            "value": "+1-859-301-2541",
            "use": "work"
          }
        ],
        "type": [
          {
            "coding": [
              {
                "code": "1108-0",
                "system": "2.16.840.1.113883.6.259",
                "display": "Emergency Department"
              },
              {
                "code": "17",
                "system": "1.2.840.114350.1.72.1.7.7.10.688867.4150",
                "display": "Emergency Medicine"
              }
            ],
            "text": "Emergency Medicine"
          }
        ]
      },
      "request": {
        "method": "PUT",
        "url": "Location/d4fbb125-b273-fd92-be8a-317c08367485"
      }
    },
    {
      "fullUrl": "urn:uuid:19ee0e46-9d6f-14db-e61d-e68ba7e027f2",
      "resource": {
        "resourceType": "Organization",
        "id": "19ee0e46-9d6f-14db-e61d-e68ba7e027f2",
        "identifier": [
          {
            "system": "urn:oid:1.2.840.114350.1.13.229.2.7.2.696570",
            "value": "10020"
          }
        ],
        "name": "Fake City",
        "address": [
          {
            "use": "work",
            "line": [
              "One 1002 Healthcare Drive Dr."
            ],
            "city": "Fake City",
            "state": "ZZ",
            "country": "USA",
            "postalCode": "99999",
            "district": "Fake County"
          }
        ],
        "telecom": [
          {
            "system": "phone",
            "value": "+1-859-301-2541",
            "use": "work"
          }
        ]
      },
      "request": {
        "method": "PUT",
        "url": "Organization/19ee0e46-9d6f-14db-e61d-e68ba7e027f2"
      }
    },
    {
      "fullUrl": "urn:uuid:8500e4e2-6773-c1bd-7fe8-50d6c78b9c5d",
      "resource": {
        "resourceType": "Practitioner",
        "id": "8500e4e2-6773-c1bd-7fe8-50d6c78b9c5d",
        "meta": {
          "profile": [
            "http://hl7.org/fhir/us/core/StructureDefinition/us-core-practitioner"
          ]
        },
        "extension": [
          {
            "url": "http://hl7.org/fhir/StructureDefinition/_datatype",
            "valueString": "Responsible Party"
          }
        ],
        "identifier": [
          {
            "system": "http://hl7.org/fhir/sid/us-npi",
            "value": "1225047202"
          }
        ],
        "name": [
          {
            "family": "Nurse",
            "given": [
              "Test",
              "M"
            ]
          }
        ],
        "address": [
          {
            "use": "work",
            "line": [
              "1 1002 Healthcare Drive DR"
            ],
            "city": "Fake City",
            "state": "ZZ",
            "postalCode": "99999-3403"
          }
        ],
        "telecom": [
          {
            "system": "phone",
            "value": "+1-859-301-2250",
            "use": "work"
          },
          {
            "system": "fax",
            "value": "+1-859-301-2650"
          }
        ]
      },
      "request": {
        "method": "PUT",
        "url": "Practitioner/8500e4e2-6773-c1bd-7fe8-50d6c78b9c5d"
      }
    },
    {
      "resource": {
        "resourceType": "PractitionerRole",
        "id": "cbb6afca-3724-003a-d54f-e9c4ac1df345",
        "practitioner": {
          "reference": "Practitioner/8500e4e2-6773-c1bd-7fe8-50d6c78b9c5d"
        },
        "organization": {
          "reference": "Organization/a54feab5-b9cd-1831-f1ef-c4521968500f"
        }
      }
    },
    {
      "fullUrl": "urn:uuid:a54feab5-b9cd-1831-f1ef-c4521968500f",
      "resource": {
        "resourceType": "Organization",
        "id": "a54feab5-b9cd-1831-f1ef-c4521968500f",
        "name": "Test Facility Healthcare",
        "address": [
          {
            "use": "work",
            "line": [
              "1 1002 Healthcare Drive Drive"
            ],
            "city": "Fake City",
            "state": "ZZ",
            "country": "USA",
            "postalCode": "99999"
          }
        ]
      },
      "request": {
        "method": "PUT",
        "url": "Organization/a54feab5-b9cd-1831-f1ef-c4521968500f"
      }
    },
    {
      "fullUrl": "urn:uuid:f9143a03-aa66-cd20-c131-1ab14625e697",
      "resource": {
        "resourceType": "Practitioner",
        "id": "f9143a03-aa66-cd20-c131-1ab14625e697",
        "meta": {
          "profile": [
            "http://hl7.org/fhir/us/core/StructureDefinition/us-core-practitioner"
          ]
        },
        "identifier": [
          {
            "system": "http://hl7.org/fhir/sid/us-npi",
            "value": "1225047202"
          }
        ],
        "name": [
          {
            "use": "official",
            "family": "Nurse",
            "given": [
              "Test",
              "M"
            ],
            "suffix": [
              " MD"
            ]
          }
        ],
        "address": [
          {
            "use": "work",
            "line": [
              "1 1002 Healthcare Drive DR"
            ],
            "city": "Fake City",
            "state": "ZZ",
            "postalCode": "99999-3403"
          }
        ],
        "telecom": [
          {
            "system": "phone",
            "value": "+1-859-301-2250",
            "use": "work"
          },
          {
            "system": "fax",
            "value": "+1-859-301-2650"
          }
        ],
        "qualification": [
          {
            "code": {
              "coding": [
                {
                  "code": "207P00000X",
                  "system": "http://nucc.org/provider-taxonomy",
                  "display": "EMERGENCY MEDICINE PHYSICIAN"
                },
                {
                  "code": "17",
                  "system": "1.2.840.114350.1.72.1.7.7.10.688867.4160",
                  "display": "Emergency Medicine"
                },
                {
                  "code": "49",
                  "system": "1.2.840.114350.1.13.229.2.7.10.836982.1050",
                  "display": "Emergency Medicine"
                }
              ],
              "text": "Emergency Medicine"
            }
          }
        ]
      },
      "request": {
        "method": "PUT",
        "url": "Practitioner/f9143a03-aa66-cd20-c131-1ab14625e697"
      }
    },
    {
      "resource": {
        "resourceType": "PractitionerRole",
        "id": "6eccbce2-9da5-0825-c932-f1393856e272",
        "practitioner": {
          "reference": "Practitioner/f9143a03-aa66-cd20-c131-1ab14625e697"
        }
      }
    },
    {
      "fullUrl": "urn:uuid:fb25dc9c-f467-4b2a-17fd-fa0fb28899a8",
      "resource": {
        "resourceType": "Organization",
        "id": "fb25dc9c-f467-4b2a-17fd-fa0fb28899a8",
        "identifier": [
          {
            "system": "urn:oid:1.2.840.114350.1.13.229.2.7.2.688879",
            "value": "20200"
          }
        ],
        "name": "Test Facility Healthcare",
        "address": [
          {
            "use": "work",
            "line": [
              "1 1002 Healthcare Drive Drive"
            ],
            "city": "Fake City",
            "state": "ZZ",
            "country": "USA",
            "postalCode": "99999"
          }
        ],
        "telecom": [
          {
            "system": "phone",
            "value": "+1-859-301-2541",
            "use": "work"
          }
        ]
      },
      "request": {
        "method": "PUT",
        "url": "Organization/fb25dc9c-f467-4b2a-17fd-fa0fb28899a8"
      }
    },
    {
      "fullUrl": "urn:uuid:503a105c-b8b2-4d73-79fb-e7862883ad84",
      "resource": {
        "resourceType": "Practitioner",
        "id": "503a105c-b8b2-4d73-79fb-e7862883ad84",
        "meta": {
          "profile": [
            "http://hl7.org/fhir/us/core/StructureDefinition/us-core-practitioner"
          ]
        },
        "identifier": [
          {
            "system": "urn:oid:1.2.840.114350.1.13.229.2.7.2.697780",
            "value": "BCKCEREP"
          }
        ],
        "name": [
          {
            "family": "Background",
            "given": [
              "Ce"
            ]
          }
        ]
      },
      "request": {
        "method": "PUT",
        "url": "Practitioner/503a105c-b8b2-4d73-79fb-e7862883ad84"
      }
    },
    {
      "resource": {
        "resourceType": "PractitionerRole",
        "id": "11437b38-2b43-cdce-22b3-0ee51b352178",
        "organization": {
          "reference": "Organization/fb25dc9c-f467-4b2a-17fd-fa0fb28899a8"
        },
        "practitioner": {
          "reference": "Practitioner/503a105c-b8b2-4d73-79fb-e7862883ad84"
        }
      }
    },
    {
      "fullUrl": "urn:uuid:4d263995-2463-9b34-9dfd-df67826fef3e",
      "resource": {
        "resourceType": "Device",
        "id": "4d263995-2463-9b34-9dfd-df67826fef3e",
        "identifier": [
          {
            "system": "urn:oid:1.2.840.114350.1.1",
            "value": "10.5"
          }
        ],
        "manufacturer": "Epic - Version 10.5",
        "version": [
          {
            "value": "Epic - Version 10.5"
          }
        ],
        "property": [
          {
            "type": {
              "coding": [
                {
                  "system": "http://hl7.org/fhir/device-category",
                  "code": "software",
                  "display": "software"
                }
              ]
            }
          }
        ],
        "owner": {
          "reference": "Organization/fb25dc9c-f467-4b2a-17fd-fa0fb28899a8"
        }
      },
      "request": {
        "method": "PUT",
        "url": "Device/4d263995-2463-9b34-9dfd-df67826fef3e"
      }
    },
    {
      "fullUrl": "urn:uuid:fe5159cd-f357-4d8d-b3cb-f82c9b956b4e",
      "resource": {
        "resourceType": "Patient",
        "id": "fe5159cd-f357-4d8d-b3cb-f82c9b956b4e",
        "meta": {
          "profile": [
            "http://hl7.org/fhir/us/core/StructureDefinition/us-core-patient"
          ]
        },
        "identifier": [
          {
            "system": "urn:oid:1.2.840.114350.1.13.229.2.7.5.737384.1000",
            "value": "01134012",
            "assigner": {
              "display": "STAR"
            }
          }
        ],
        "name": [
          {
            "use": "official",
            "family": "Patient",
            "given": [
              "Test",
              "A"
            ]
          },
          {
            "use": "nickname",
            "family": "Patient",
            "given": [
              "Test"
            ]
          },
          {
            "use": "nickname",
            "family": "Patient",
            "given": [
              "Test",
              "A"
            ]
          }
        ],
        "birthDate": "1901-01-01",
        "deceasedBoolean": false,
        "gender": "female",
        "extension": [
          {
            "url": "http://hl7.org/fhir/us/core/StructureDefinition/us-core-race",
            "extension": [
              {
                "url": "ombCategory",
                "valueCoding": {
                  "code": "2106-3",
                  "system": "urn:oid:2.16.840.1.113883.6.238",
                  "display": "White"
                }
              },
              {
                "url": "text",
                "valueString": "White"
              }
            ]
          },
          {
            "url": "http://hl7.org/fhir/us/core/StructureDefinition/us-core-ethnicity",
            "extension": [
              {
                "url": "ombCategory",
                "valueCoding": {
                  "code": "2186-5",
                  "system": "urn:oid:2.16.840.1.113883.6.238",
                  "display": "Not Hispanic or Latino"
                }
              },
              {
                "url": "text",
                "valueString": "Not Hispanic or Latino"
              }
            ]
          },
          {
            "url": "http://hl7.org/fhir/StructureDefinition/patient-religion",
            "valueCodeableConcept": {
              "coding": [
                {
                  "code": "Catholic",
                  "system": "2.16.840.1.113883.5.1076"
                }
              ]
            }
          }
        ],
        "address": [
          {
            "use": "home",
            "line": [
              "1002 Healthcare Drive"
            ],
            "city": "Fake City",
            "state": "ZZ",
            "country": "USA",
            "postalCode": "99999",
            "district": "Fake County",
            "period": {
              "start": "2023-12-08"
            }
          },
          {
            "use": "home",
            "line": [
              "123 Doctor Drive"
            ],
            "city": "Fake City",
            "state": "ZZ",
            "country": "USA",
            "postalCode": "99999",
            "district": "Fake County",
            "period": {
              "start": "2018-05-24",
              "end": "2023-12-07"
            }
          }
        ],
        "maritalStatus": {
          "coding": [
            {
              "system": "2.16.840.1.113883.5.1076"
            }
          ]
        },
        "contact": [
          {
            "relationship": [
              {
                "coding": [
                  {
                    "system": "2.16.840.1.113883.5.1076",
                    "display": "Grandparent"
                  }
                ],
                "text": "Grandparent"
              }
            ],
            "telecom": [
              {
                "system": "phone",
                "value": "+1-859-322-3170",
                "use": "home"
              }
            ],
            "address": {
              "use": "home",
              "line": [
                "2015 Greenup Street"
              ],
              "city": "Fake City",
              "state": "ZZ",
              "country": "USA",
              "postalCode": "41014",
              "district": "Fake County"
            }
          },
          {
            "relationship": [
              {
                "coding": [
                  {
                    "system": "2.16.840.1.113883.5.1076",
                    "display": "Mother"
                  }
                ],
                "text": "Mother"
              }
            ],
            "telecom": [
              {
                "system": "phone",
                "value": "+1-555-555-1234",
                "use": "mobile"
              }
            ],
            "address": {
              "use": "home",
              "line": [
                "216 East 18th Stree"
              ],
              "city": "Fake City",
              "state": "ZZ",
              "country": "USA",
              "postalCode": "41012",
              "district": "Fake County"
            }
          }
        ],
        "communication": [
          {
            "language": {
              "coding": [
                {
                  "system": "urn:ietf:bcp:47",
                  "code": "en",
                  "display": "English"
                }
              ]
            },
            "preferred": true
          }
        ]
      },
      "request": {
        "method": "PUT",
        "url": "Patient/fe5159cd-f357-4d8d-b3cb-f82c9b956b4e"
      }
    }
  ]
}
}