{
  "Status": "OK",
  "FhirResource": {
  "resourceType": "Bundle",
  "type": "batch",
  "entry": [
    {
      "fullUrl": "1906844699671570",
      "resource": {
        "resourceType": "Composition",
        "id": "1906844699671570",
        "meta": {
          "profile": [
            "http://hl7.org/fhir/us/ecr/StructureDefinition/eicr-composition"
          ]
        },
        "identifier": {
          "use": "official",
          "type": {
            "coding": [
              {
                "code": "55751-2",
                "system": "http://loinc.org",
                "display": "Initial Public Health Case Report"
              }
            ]
          }
        },
        "extension": [
          {
            "url": "http://hl7.org/fhir/StructureDefinition/composition-clinicaldocument-versionNumber"
          },
          {
            "url": "https://www.hl7.org/implement/standards/product_brief.cfm?product_id=436",
            "valueString": "2016-12-01"
          }
        ],
        "status": "final",
        "type": {
          "coding": [
            {
              "code": "55751-2",
              "system": "http://loinc.org",
              "display": "Initial Public Health Case Report"
            }
          ]
        },
        "date": "2020-06-03T23:05:04-05:00",
        "title": "Initial Public Health Case Report",
        "confidentiality": "N",
        "event": [
          {
            "period": {
              "start": "2020-06-03T23:05:04-05:00"
            }
          }
        ],
        "section": [
          {
            "id": "c402a37c-69d3-1ec3-b86d-b19652efc43b",
            "title": "HISTORY OF PRESENT ILLNESS",
            "text": {
              "status": "generated",
              "div": "Penile discharge - New ·Instructions: STI testing sent. Discussed safe sex and importance of using condoms. Treated with azithro (direct observation, No rashes, no abnormal lesions , no accessory muscle use, no retractions, lungs clear to auscultation bilaterally, symmetric air movement, Devonte Rich is a 17 Years &amp; 0 Months Old Male ( DOB 04/10/2003) here for STI testing. He states that a few days ago he started having dysuria and mucus penile discharge. He had unprotected vaginal intercourse about 1 week ago. New partner. He is unsure if partner had symptoms/STI diagnosis. He has not had a fever. Denies lesions. He is not urinating more frequently. , No, No, No, No, No"
            },
            "code": {
              "coding": [
                {
                  "code": "10164-2",
                  "system": "http://loinc.org",
                  "display": "HISTORY OF PRESENT ILLNESS"
                }
              ]
            },
            "mode": "snapshot"
          },
          {
            "id": "6c4b86e7-dcd5-39ae-02dd-b4b2cfd7bea7",
            "title": "REASON FOR VISIT",
            "text": {
              "status": "generated",
              "div": "STI/STD testing"
            },
            "code": {
              "coding": [
                {
                  "code": "29299-5",
                  "system": "http://loinc.org",
                  "display": "REASON FOR VISIT"
                }
              ]
            },
            "mode": "snapshot",
            "extension": [
              {
                "url": "http://hl7.org/fhir/cda/ccda/StructureDefinition/2.16.840.1.113883.10.20.22.2.12",
                "valueString": "STI/STD testing"
              }
            ]
          },
          {
            "id": "61d661e1-b0fc-ab56-c1c0-c35250b3dc38",
            "title": "SOCIAL HISTORY",
            "text": {
              "status": "generated",
              "div": "<table border=\"1\" width=\"100%\" xmlns=\"urn:hl7-org:v3\"><thead><tr><th align=\"left\">Date</th><th align=\"left\">Observation</th><th align=\"left\">Value</th><th align=\"left\">Provider</th></tr></thead><tbody><tr ID=\"d59085e104-1.2.840.113619.21.1.139060385287897942.10.1591243504674.470134\"><td align=\"center\">\"</td><td>if the patient is using/has used a vaping item, Current, Former, Never Used, Not asked</td><td>No</td><td>Fredrick Reid </td></tr><tr ID=\"d59085e191-1.2.840.113619.21.1.139060385287897942.10.1591243504674.470134\"><td align=\"center\">\"</td><td>Exercise Program Referral</td><td>T</td><td>Fredrick Reid </td></tr><tr ID=\"d59085e282-1.2.840.113619.21.1.139060385287897942.10.1591243504674.470134\"><td align=\"center\">\"</td><td>Weight Management Counseling Provided</td><td>T</td><td>Fredrick Reid </td></tr><tr ID=\"d59085e369-1.2.840.113619.21.1.139060385287897942.10.1591243504674.470134\"><td align=\"center\">\"</td><td>Nutrition intervention</td><td>T</td><td>Fredrick Reid </td></tr></tbody></table>"
            },
            "code": {
              "coding": [
                {
                  "code": "29762-2",
                  "system": "http://loinc.org",
                  "display": "SOCIAL HISTORY"
                }
              ]
            },
            "mode": "snapshot",
            "entry": [
              {
                "reference": "Observation/0f27b27d-9dc8-cf8e-87f1-dfa4a56104e1"
              },
              {
                "reference": "Observation/95b0e429-2c71-9c30-2c77-c8fbe8822d7e"
              },
              {
                "reference": "Observation/a360e82f-5921-07d3-54a9-6980c09f048b"
              },
              {
                "reference": "Observation/f7101e94-faa6-0609-5e5e-817978d16827"
              }
            ]
          },
          {
            "id": "ea852d84-622f-9a44-9256-d3a3074db735",
            "title": "ENCOUNTERS",
            "text": {
              "status": "generated",
              "div": "<table border=\"1\" width=\"100%\" xmlns=\"urn:hl7-org:v3\"><thead><tr><th align=\"left\">Date</th><th align=\"left\">Type</th><th align=\"left\">Provider</th><th align=\"left\">Location</th><th align=\"left\">Encounter Diagnosis</th></tr></thead><tbody><tr ID=\"d59071e13-1.2.840.113619.21.1.139060385287897942.10.1591243504658.93675\"><td>2020/04/30 - 2020/04/30</td><td>Consent Forms</td><td><list listType=\"unordered\"><item>Registration NNHSC Desktop </item><item>LinkLogic </item></list></td><td>Komed Holman Health Center</td><td>UNK</td></tr><tr ID=\"d59071e101-1.2.840.113619.21.1.139060385287897942.10.1591243504658.93675\"><td>2020/04/30 - 2020/04/30</td><td>Consent Forms</td><td><list listType=\"unordered\"><item>Registration NNHSC Desktop </item><item>LinkLogic </item></list></td><td>Komed Holman Health Center</td><td>UNK</td></tr><tr ID=\"d59071e189-1.2.840.113619.21.1.139060385287897942.10.1591243504658.93675\"><td>2020/04/30 - 2020/04/30</td><td>Registration</td><td><list listType=\"unordered\"><item>Registration NNHSC Desktop </item><item>LinkLogic </item></list></td><td>Komed Holman Health Center</td><td>UNK</td></tr><tr ID=\"d59071e277-1.2.840.113619.21.1.139060385287897942.10.1591243504658.93675\"><td>2020/05/05 - 2020/05/05</td><td>Append</td><td><list listType=\"unordered\"><item>Maya Hart </item></list></td><td>Komed Holman Health Center</td><td>UNK</td></tr><tr ID=\"d59071e359-1.2.840.113619.21.1.139060385287897942.10.1591243504658.93675\"><td>2020/05/01 - 2020/05/01</td><td>Phone Note</td><td><list listType=\"unordered\"><item>William Stanford </item></list></td><td>Komed Holman Health Center</td><td>UNK</td></tr><tr ID=\"d59071e441-1.2.840.113619.21.1.139060385287897942.10.1591243504658.93675\"><td>2020/04/30 - 2020/04/30</td><td>Lab Report</td><td><list listType=\"unordered\"><item>William Stanford </item><item>LinkLogic </item></list></td><td>Near North Health Service Corporation</td><td>UNK</td></tr><tr ID=\"d59071e530-1.2.840.113619.21.1.139060385287897942.10.1591243504658.93675\"><td>2020/04/30 - 2020/04/30</td><td>Internal Correspondence</td><td><list listType=\"unordered\"><item>William Stanford </item></list></td><td>Komed Holman Health Center</td><td>UNK</td></tr><tr ID=\"d59071e612-1.2.840.113619.21.1.139060385287897942.10.1591243504658.93675\"><td>2020/04/30 - 2020/04/30</td><td>Internal Correspondence</td><td><list listType=\"unordered\"><item>William Stanford </item></list></td><td>Komed Holman Health Center</td><td>UNK</td></tr><tr ID=\"d59071e694-1.2.840.113619.21.1.139060385287897942.10.1591243504658.93675\"><td>2020/04/30 - 2020/04/30</td><td>Office Visit</td><td><list listType=\"unordered\"><item>William Stanford </item><item>Olubunmi Erinolu </item><item>Fredrick Reid </item><item>Maya Hart </item></list></td><td>Komed Holman Health Center</td><td><list listType=\"unordered\"><item>Penile discharge</item></list></td></tr></tbody></table>"
            },
            "code": {
              "coding": [
                {
                  "code": "46240-8",
                  "system": "http://loinc.org",
                  "display": "ENCOUNTERS"
                }
              ]
            },
            "mode": "snapshot"
          },
          {
            "id": "3e2ea34f-fd94-3579-b75f-7cc3393db36f",
            "title": "MEDICATIONS ADMINISTERED",
            "text": {
              "status": "generated",
              "div": "<table border=\"1\" width=\"100%\" xmlns=\"urn:hl7-org:v3\"><thead><tr><th align=\"left\">Medication</th><th align=\"left\">Status</th><th align=\"left\">Directions</th><th align=\"left\">Dates</th><th align=\"left\">Provider</th><th align=\"left\">Indications</th><th align=\"left\">Fill Instructions</th></tr></thead><tbody><tr ID=\"d59062e13-1.2.840.113619.21.1.139060385287897942.10.1591243504658.505390\"><td ID=\"d59062e100\">CEFTRIAXONE SODIUM</td><td>in-progress</td><td ID=\"d59062e109\">Left Deltoid</td><td>2020/05/05 - 2020/05/05</td><td>Maya Hart </td><td>Penile discharge</td><td ID=\"d59062e102a1065-1.2.840.113619.21.1.139060385287897942.10.1591243504658.505390\">admin 4/30/20 left deltoid no reaction pt tolerated well </td></tr></tbody></table>"
            },
            "code": {
              "coding": [
                {
                  "code": "29549-3",
                  "system": "http://loinc.org",
                  "display": "MEDICATIONS ADMINISTERED"
                }
              ]
            },
            "mode": "snapshot",
            "entry": [
              {
                "reference": "MedicationAdministration/b6d8dc2c-cdf0-b600-effa-8980bbfe7f79"
              }
            ]
          },
          {
            "id": "11ec1725-e704-d512-7916-8bcd4d1e8f26",
            "title": "HISTORY OF MEDICATION USE",
            "text": {
              "status": "generated",
              "div": "<table border=\"1\" width=\"100%\" xmlns=\"urn:hl7-org:v3\"><thead><tr><th align=\"left\">Medication</th><th align=\"left\">Status</th><th align=\"left\">Instructions</th><th align=\"left\">Dates</th><th align=\"left\">Provider</th><th align=\"left\">Indications</th><th align=\"left\">Comments</th></tr></thead><tbody><tr ID=\"d59183e18-1.2.840.113619.21.1.139060385287897942.10.1591243504799.119162\"><td ID=\"d59183e79\">EPIPEN 2-PAK 0.3 MG/0.3ML INJECTION SOLUTION AUTO-INJECTOR</td><td>active</td><td ID=\"d59183e82\">use as directecd then to ER</td><td>2017/07/12</td><td>Jenny Cha-Kim </td><td /><td /></tr><tr ID=\"d59183e88-1.2.840.113619.21.1.139060385287897942.10.1591243504799.119162\"><td ID=\"d59183e149\">FLONASE ALLERGY RELIEF 50 MCG/ACT NASAL SUSPENSION</td><td>active</td><td ID=\"d59183e152\">1 spray to each nostril Twice a Day As Needed</td><td>2016/07/13</td><td>Jenny Cha-Kim </td><td /><td /></tr><tr ID=\"d59183e168-1.2.840.113619.21.1.139060385287897942.10.1591243504799.119162\"><td ID=\"d59183e227\">PATADAY 0.2 % OPHTHALMIC SOLUTION</td><td>active</td><td ID=\"d59183e230\">1 drop each eye once a day for allergies</td><td>2013/05/13</td><td>Antoinette Sallamme </td><td /><td /></tr><tr ID=\"d59183e236-1.2.840.113619.21.1.139060385287897942.10.1591243504799.119162\"><td ID=\"d59183e285\">NEBULIZER/ADULT MASK KIT</td><td>active</td><td ID=\"d59183e288\">as directed indication: asthma</td><td>2010/04/20</td><td>Antoinette Sallamme </td><td /><td /></tr><tr ID=\"d59183e294-1.2.840.113619.21.1.139060385287897942.10.1591243504799.119162\"><td ID=\"d59183e355\">AEROCHAMBER MV</td><td>active</td><td ID=\"d59183e358\">as directed with metered dose inhaler</td><td>2008/12/10</td><td>Antoinette Sallamme </td><td /><td /></tr><tr ID=\"d59183e364-1.2.840.113619.21.1.139060385287897942.10.1591243504799.119162\"><td ID=\"d59183e425\">ALBUTEROL SULFATE (2.5 MG/3ML) 0.083% INHALATION NEBULIZATION SOLUTION</td><td>active</td><td ID=\"d59183e428\">1 vial via nebulizer Every Four-6h As Needed cough or wheeze</td><td>2007/10/29</td><td>Antoinette Sallamme </td><td /><td /></tr><tr ID=\"d59183e435-1.2.840.113619.21.1.139060385287897942.10.1591243504799.119162\"><td ID=\"d59183e496\">PROAIR HFA 108 (90 Base) MCG/ACT INHALATION AEROSOL SOLUTION</td><td>active</td><td ID=\"d59183e499\">2 puffs Every 4-6 hrs As Needed cough or wheeze. Please use 15-20 minutes before exercise.</td><td>2008/12/10</td><td>Suzanne Gouda </td><td /><td /></tr></tbody></table>"
            },
            "code": {
              "coding": [
                {
                  "code": "10160-0",
                  "system": "http://loinc.org",
                  "display": "HISTORY OF MEDICATION USE"
                }
              ]
            },
            "mode": "snapshot"
          },
          {
            "id": "fac2f2bd-cc96-36f9-2f94-136a1785572c",
            "title": "Problems",
            "text": {
              "status": "generated",
              "div": "No Known Problems"
            },
            "code": {
              "coding": [
                {
                  "code": "11450-4",
                  "system": "http://loinc.org",
                  "display": "Problem list - Reported"
                }
              ]
            },
            "mode": "snapshot",
            "entry": [
              {
                "display": "Problem - Problem",
                "reference": "Condition/78b3b51a-c8bd-f5c6-7d37-94ac20f429a9"
              }
            ]
          },
          {
            "id": "d2a501b1-fe43-453b-2854-28193e41678b",
            "title": "RESULTS",
            "text": {
              "status": "generated",
              "div": "<table border=\"1\" width=\"100%\" xmlns=\"urn:hl7-org:v3\"><thead><tr><th align=\"left\">Date</th><th align=\"left\">Observation</th><th align=\"left\">Value</th><th align=\"left\">Provider</th><th align=\"left\">Reference Range</th><th align=\"left\">Interpretation</th><th align=\"left\">Location</th></tr></thead><tbody><tr ID=\"d59150e13-1.2.840.113619.21.1.139060385287897942.10.1591243504768.349314\"><td align=\"left\">2020/04/30</td><td>rapid plasma reagin antibody, serum</td><td>Non Reactive</td><td>LinkLogic </td><td>Non Reactive</td><td /><td /></tr><tr ID=\"d59150e112-1.2.840.113619.21.1.139060385287897942.10.1591243504768.349314\"><td align=\"center\">\"</td><td>Neisseria gonorrhoeae DNA probe</td><td>Positive</td><td>LinkLogic </td><td>Negative</td><td>Abnormal</td><td /></tr><tr ID=\"d59150e217-1.2.840.113619.21.1.139060385287897942.10.1591243504768.349314\"><td align=\"center\">\"</td><td>chlamydia DNA probe</td><td>Positive</td><td>LinkLogic </td><td>Negative</td><td>Abnormal</td><td /></tr></tbody></table>"
            },
            "code": {
              "coding": [
                {
                  "code": "30954-2",
                  "system": "http://loinc.org",
                  "display": "RESULTS"
                }
              ]
            },
            "mode": "snapshot",
            "entry": [
              {
                "reference": "Observation/22f48f30-ea4c-0b37-48c8-5907246e41c7",
                "display": "rapid plasma reagin antibody, serum"
              },
              {
                "reference": "Observation/e0ea4288-9839-f8c2-3821-3c09292e55ef",
                "display": "Neisseria gonorrhoeae DNA probe"
              },
              {
                "reference": "Observation/e2429212-bf4e-1269-be7d-c533822441de",
                "display": "chlamydia DNA probe"
              }
            ]
          }
        ],
        "subject": {
          "reference": "Patient/09241106-f258-7750-983c-0a4efa885c56"
        },
        "encounter": {
          "reference": "Encounter/bb44bb8e-af4d-7cf5-b8a0-bfed3557d83a"
        },
        "custodian": {
          "reference": "Organization/2bae76ef-8be0-941b-6672-72b84298d223"
        },
        "author": [
          {
            "reference": "PractitionerRole/876b5cd3-71aa-6ae6-94a5-0413e5733a50"
          },
          {
            "reference": "Device/48c756a8-18ae-5310-e8d7-2de6957e99b8"
          }
        ]
      },
      "request": {
        "method": "PUT",
        "url": "Composition/1906844699671570"
      }
    },
    {
      "fullUrl": "urn:uuid:bb44bb8e-af4d-7cf5-b8a0-bfed3557d83a",
      "resource": {
        "resourceType": "Encounter",
        "id": "bb44bb8e-af4d-7cf5-b8a0-bfed3557d83a",
        "status": "unknown",
        "class": {
          "code": "PHC2237",
          "system": "2.16.840.1.114222.4.5.274",
          "display": "External Encounter"
        },
        "identifier": [
          {
            "extension": {
              "url": "http://hl7.org/fhir/ValueSet/data-absent-reason",
              "valueCode": "not-applicable"
            }
          }
        ],
        "subject": {
          "reference": "Patient/09241106-f258-7750-983c-0a4efa885c56"
        },
        "location": [
          {
            "id": "2.16.840.1.113883.4.6",
            "location": {
              "reference": "Location/bdf4bd41-5f95-3434-7bad-c22f469af6db",
              "display": "None"
            },
            "extension": [
              {
                "url": "http://build.fhir.org/ig/HL7/case-reporting/StructureDefinition-us-ph-location-definitions.html#Location.type",
                "valueCodeableConcept": {
                  "coding": [
                    {
                      "system": "http://hl7.org/fhir/sid/us-npi"
                    }
                  ]
                }
              }
            ]
          }
        ],
        "serviceProvider": {
          "reference": "Organization/42e178bb-0fd1-7329-a02e-c06b5c9782b8"
        },
        "participant": [
          {
            "type": [
              {
                "coding": [
                  {
                    "system": "http://terminology.hl7.org/CodeSystem/v3-ParticipationType",
                    "code": "ATND"
                  }
                ]
              }
            ],
            "individual": {
              "reference": "PractitionerRole/e8d30303-e0a1-2dbb-bddb-d208c95aad77"
            }
          }
        ]
      },
      "request": {
        "method": "PUT",
        "url": "Encounter/bb44bb8e-af4d-7cf5-b8a0-bfed3557d83a"
      }
    },
    {
      "fullUrl": "urn:uuid:bdf4bd41-5f95-3434-7bad-c22f469af6db",
      "resource": {
        "resourceType": "Location",
        "id": "bdf4bd41-5f95-3434-7bad-c22f469af6db",
        "identifier": [
          {
            "system": "http://hl7.org/fhir/sid/us-npi",
            "_value": {
              "extension": {
                "url": "http://hl7.org/fhir/ValueSet/data-absent-reason",
                "valueCode": "not-applicable"
              }
            }
          }
        ],
        "type": [
          {
            "coding": [
              {
                "system": "http://hl7.org/fhir/sid/us-npi"
              }
            ]
          }
        ]
      },
      "request": {
        "method": "PUT",
        "url": "Location/bdf4bd41-5f95-3434-7bad-c22f469af6db"
      }
    },
    {
      "fullUrl": "urn:uuid:42e178bb-0fd1-7329-a02e-c06b5c9782b8",
      "resource": {
        "resourceType": "Organization",
        "id": "42e178bb-0fd1-7329-a02e-c06b5c9782b8"
      },
      "request": {
        "method": "PUT",
        "url": "Organization/42e178bb-0fd1-7329-a02e-c06b5c9782b8"
      }
    },
    {
      "fullUrl": "urn:uuid:e8d30303-e0a1-2dbb-bddb-d208c95aad77",
      "resource": {
        "resourceType": "Practitioner",
        "id": "e8d30303-e0a1-2dbb-bddb-d208c95aad77",
        "meta": {
          "profile": [
            "http://hl7.org/fhir/us/core/StructureDefinition/us-core-practitioner"
          ]
        },
        "extension": [
          {
            "url": "http://hl7.org/fhir/StructureDefinition/_datatype",
            "valueString": "Responsible Party"
          }
        ],
        "identifier": [
          {
            "system": "http://hl7.org/fhir/sid/us-npi",
            "_value": {
              "extension": {
                "url": "http://hl7.org/fhir/ValueSet/data-absent-reason",
                "valueCode": "not-applicable"
              }
            }
          }
        ]
      },
      "request": {
        "method": "PUT",
        "url": "Practitioner/e8d30303-e0a1-2dbb-bddb-d208c95aad77"
      }
    },
    {
      "resource": {
        "resourceType": "PractitionerRole",
        "id": "e8d30303-e0a1-2dbb-bddb-d208c95aad77",
        "practitioner": {
          "reference": "Practitioner/e8d30303-e0a1-2dbb-bddb-d208c95aad77"
        },
        "organization": {
          "reference": "Organization/43eaaf8e-f805-d37c-8e4e-77965eef87aa"
        }
      }
    },
    {
      "fullUrl": "urn:uuid:43eaaf8e-f805-d37c-8e4e-77965eef87aa",
      "resource": {
        "resourceType": "Organization",
        "id": "43eaaf8e-f805-d37c-8e4e-77965eef87aa"
      },
      "request": {
        "method": "PUT",
        "url": "Organization/43eaaf8e-f805-d37c-8e4e-77965eef87aa"
      }
    },
    {
      "fullUrl": "urn:uuid:2bae76ef-8be0-941b-6672-72b84298d223",
      "resource": {
        "resourceType": "Organization",
        "id": "2bae76ef-8be0-941b-6672-72b84298d223",
        "identifier": [
          {
            "system": "urn:oid:1.2.840.113619.21.1.139060385287897942.9",
            "value": "Organization/LO-1454412490000610",
            "assigner": {
              "display": " API Resource Identifier"
            }
          },
          {
            "system": "UNK",
            "value": "LO-1454412490000610",
            "assigner": {
              "display": "Organization Identifier"
            }
          },
          {
            "system": "urn:oid:2.16.840.1.113883.4.2",
            "value": "363197647",
            "assigner": {
              "display": "Tax ID number"
            }
          }
        ],
        "name": "Komed Holman Health Center",
        "address": [
          {
            "line": [
              "4259 S. Berkeley"
            ],
            "city": "Chicago",
            "state": "IL",
            "country": "USA",
            "postalCode": "60653"
          }
        ],
        "telecom": [
          {
            "system": "phone",
            "value": "7732687600",
            "use": "work"
          }
        ]
      },
      "request": {
        "method": "PUT",
        "url": "Organization/2bae76ef-8be0-941b-6672-72b84298d223"
      }
    },
    {
      "fullUrl": "urn:uuid:406c3e36-d27a-041b-61a8-e29df69f50e1",
      "resource": {
        "resourceType": "Practitioner",
        "id": "406c3e36-d27a-041b-61a8-e29df69f50e1",
        "meta": {
          "profile": [
            "http://hl7.org/fhir/us/core/StructureDefinition/us-core-practitioner"
          ]
        },
        "identifier": [
          {
            "system": "urn:oid:1.2.840.113619.21.1.139060385287897942.2.2",
            "value": "1467041069000630",
            "assigner": {
              "display": " Providers by PVID"
            }
          },
          {
            "system": "urn:oid:1.2.840.113619.21.1.139060385287897942.2.1",
            "value": "365",
            "assigner": {
              "display": " Providers by DoctorFacility"
            }
          }
        ],
        "name": [
          {
            "family": "Nurse Desk",
            "given": [
              "KH WH"
            ]
          }
        ],
        "address": [
          {
            "line": [
              "Winfield Moody",
              "1276 N Clybourn"
            ],
            "city": "Chicago",
            "state": "IL",
            "postalCode": "60653"
          }
        ],
        "telecom": [
          {
            "system": "phone",
            "value": "3123371073",
            "use": "work"
          },
          {
            "system": "phone",
            "value": "3123377616",
            "use": "mobile"
          }
        ]
      },
      "request": {
        "method": "PUT",
        "url": "Practitioner/406c3e36-d27a-041b-61a8-e29df69f50e1"
      }
    },
    {
      "fullUrl": "urn:uuid:01fe444a-5df3-6915-447b-5b16fe2c6872",
      "resource": {
        "resourceType": "Organization",
        "id": "01fe444a-5df3-6915-447b-5b16fe2c6872",
        "identifier": [
          {
            "system": "urn:oid:1.2.840.113619.21.1.139060385287897942.9",
            "value": "Organization/DF-76",
            "assigner": {
              "display": " API Resource Identifier"
            }
          },
          {
            "system": "UNK",
            "value": "DF-76",
            "assigner": {
              "display": "Organization Identifier"
            }
          },
          {
            "system": "http://hl7.org/fhir/sid/us-npi",
            "value": "1821079088",
            "assigner": {
              "display": "National Provider Identifier"
            }
          },
          {
            "system": "urn:oid:2.16.840.1.113883.4.2",
            "value": "363197647",
            "assigner": {
              "display": "Tax ID number"
            }
          }
        ],
        "name": "Winfield Moody Health Center",
        "address": [
          {
            "line": [
              "1276 N Clybourn"
            ],
            "city": "Chicago",
            "state": "IL ",
            "postalCode": "60610     "
          }
        ],
        "telecom": [
          {
            "system": "phone",
            "value": "3123371073     ",
            "use": "work"
          }
        ]
      },
      "request": {
        "method": "PUT",
        "url": "Organization/01fe444a-5df3-6915-447b-5b16fe2c6872"
      }
    },
    {
      "resource": {
        "resourceType": "PractitionerRole",
        "id": "876b5cd3-71aa-6ae6-94a5-0413e5733a50",
        "organization": {
          "reference": "Organization/01fe444a-5df3-6915-447b-5b16fe2c6872"
        },
        "practitioner": {
          "reference": "Practitioner/406c3e36-d27a-041b-61a8-e29df69f50e1"
        }
      }
    },
    {
      "fullUrl": "urn:uuid:48c756a8-18ae-5310-e8d7-2de6957e99b8",
      "resource": {
        "resourceType": "Device",
        "id": "48c756a8-18ae-5310-e8d7-2de6957e99b8",
        "identifier": [
          {
            "system": "urn:ietf:rfc:3986",
            "value": "urn:oid:1.2.840.113619.21.1.139060385287897942.11"
          }
        ],
        "manufacturer": "12.3/9.12",
        "version": [
          {
            "value": "GE Healthcare API Server"
          }
        ],
        "property": [
          {
            "type": {
              "coding": [
                {
                  "system": "http://hl7.org/fhir/device-category",
                  "code": "software",
                  "display": "software"
                }
              ]
            }
          }
        ],
        "owner": {
          "reference": "Organization/2bae76ef-8be0-941b-6672-72b84298d223"
        }
      },
      "request": {
        "method": "PUT",
        "url": "Device/48c756a8-18ae-5310-e8d7-2de6957e99b8"
      }
    },
    {
      "fullUrl": "urn:uuid:09241106-f258-7750-983c-0a4efa885c56",
      "resource": {
        "resourceType": "Patient",
        "id": "09241106-f258-7750-983c-0a4efa885c56",
        "meta": {
          "profile": [
            "http://hl7.org/fhir/us/core/StructureDefinition/us-core-patient"
          ]
        },
        "identifier": [
          {
            "system": "urn:oid:1.2.840.113619.21.1.139060385287897942.2.1.1.1",
            "value": "1457798911500610"
          },
          {
            "system": "urn:oid:1.2.840.113619.21.1.139060385287897942.2.1.1.2",
            "value": "47506",
            "assigner": {
              "display": "GE EMR-CPS PatientId"
            }
          },
          {
            "system": "urn:oid:1.2.840.113619.21.1.139060385287897942.2.1.1",
            "value": "K81506",
            "assigner": {
              "display": "GE EMR-CPS PatientMRN"
            }
          }
        ],
        "name": [
          {
            "use": "official",
            "family": "Patient10",
            "given": [
              "Sample"
            ]
          }
        ],
        "birthDate": "1991-10-01",
        "deceasedBoolean": false,
        "gender": "female",
        "extension": [
          {
            "url": "http://hl7.org/fhir/us/core/StructureDefinition/us-core-race",
            "extension": [
              {
                "url": "ombCategory",
                "valueCoding": {
                  "code": "2054-5",
                  "system": "urn:oid:2.16.840.1.113883.6.238",
                  "display": "Black or African American"
                }
              },
              {
                "url": "text",
                "valueString": "Black or African American"
              }
            ]
          },
          {
            "url": "http://hl7.org/fhir/us/core/StructureDefinition/us-core-ethnicity",
            "extension": [
              {
                "url": "ombCategory",
                "valueCoding": {
                  "code": "2186-5",
                  "system": "urn:oid:2.16.840.1.113883.6.238",
                  "display": "Not Hispanic or Latino"
                }
              },
              {
                "url": "text",
                "valueString": "Not Hispanic or Latino"
              }
            ]
          }
        ],
        "address": [
          {
            "line": [
              "10 Sample Street",
              "apt 2"
            ],
            "city": "Chicago",
            "state": "IL",
            "postalCode": "60653"
          }
        ],
        "telecom": [
          {
            "system": "phone",
            "value": "3129998888",
            "use": "mobile"
          }
        ],
        "communication": [
          {
            "language": {
              "coding": [
                {
                  "system": "urn:ietf:bcp:47",
                  "code": "en",
                  "display": "English"
                }
              ]
            },
            "preferred": true
          }
        ]
      },
      "request": {
        "method": "PUT",
        "url": "Patient/09241106-f258-7750-983c-0a4efa885c56"
      }
    },
    {
      "fullUrl": "urn:uuid:b6d8dc2c-cdf0-b600-effa-8980bbfe7f79",
      "resource": {
        "resourceType": "MedicationAdministration",
        "id": "b6d8dc2c-cdf0-b600-effa-8980bbfe7f79",
        "identifier": [
          {
            "system": "urn:oid:1.2.840.113619.21.1.139060385287897942.9",
            "value": "MedicationAdministration/1904286456360830",
            "assigner": {
              "display": "31913-41995-12761042 API Resource Identifier"
            }
          },
          {
            "system": "UNK",
            "value": "1904286456360830",
            "assigner": {
              "display": "Unknown"
            }
          }
        ],
        "status": "in-progress",
        "effectivePeriod": {
          "start": "2020-05-05T08:26:00-05:00",
          "end": "2020-05-05T08:26:00-05:00"
        },
        "dosage": {
          "route": {
            "coding": [
              {
                "code": "C28161",
                "system": "2.16.840.1.113883.3.26.1.1",
                "display": "INTRAMUSCULAR"
              }
            ],
            "text": "INTRAMUSCULAR"
          },
          "dose": {
            "value": 250,
            "unit": "mg"
          }
        },
        "subject": {
          "reference": "Patient/09241106-f258-7750-983c-0a4efa885c56"
        },
        "medicationReference": {
          "reference": "Medication/ed9eef1e-30d2-4ca6-5799-9cabdcc38fa9"
        }
      },
      "request": {
        "method": "PUT",
        "url": "MedicationAdministration/b6d8dc2c-cdf0-b600-effa-8980bbfe7f79"
      }
    },
    {
      "fullUrl": "urn:uuid:ed9eef1e-30d2-4ca6-5799-9cabdcc38fa9",
      "resource": {
        "resourceType": "Medication",
        "id": "ed9eef1e-30d2-4ca6-5799-9cabdcc38fa9",
        "code": {
          "coding": [
            {
              "code": "309092",
              "system": "http://www.nlm.nih.gov/research/umls/rxnorm",
              "display": "CEFTRIAXONE SODIUM"
            },
            {
              "code": "25900",
              "system": "2.16.840.1.113883.6.253"
            },
            {
              "code": "02300090102105",
              "system": "2.16.840.1.113883.6.68"
            },
            {
              "code": "2880",
              "system": "1.2.840.113619.21.100.12.998"
            },
            {
              "code": "8229",
              "system": "1.2.840.113619.21.100.12.999"
            },
            {
              "code": "00143985925",
              "system": "2.16.840.1.113883.6.69"
            }
          ],
          "text": "(CEFTRIAXONE SODIUM) 250 MG SOLR"
        }
      },
      "request": {
        "method": "PUT",
        "url": "Medication/ed9eef1e-30d2-4ca6-5799-9cabdcc38fa9"
      }
    },
    {
      "fullUrl": "urn:uuid:f99f1a4f-8caa-a681-192b-c9a86a4ffdbb",
      "resource": {
        "resourceType": "MedicationStatement",
        "id": "f99f1a4f-8caa-a681-192b-c9a86a4ffdbb",
        "identifier": [
          {
            "system": "urn:oid:1.2.840.113619.21.1.139060385287897942.9",
            "value": "MedicationStatement/1815500410564150",
            "assigner": {
              "display": " API Resource Identifier"
            }
          }
        ],
        "status": "active",
        "effectivePeriod": {
          "start": "2017-07-12T00:00:00-05:00"
        },
        "subject": {
          "reference": "Patient/09241106-f258-7750-983c-0a4efa885c56"
        },
        "medicationReference": {
          "reference": "Medication/055a90c5-5796-1583-8f7c-e46db728f31c"
        }
      },
      "request": {
        "method": "PUT",
        "url": "MedicationStatement/f99f1a4f-8caa-a681-192b-c9a86a4ffdbb"
      }
    },
    {
      "fullUrl": "urn:uuid:055a90c5-5796-1583-8f7c-e46db728f31c",
      "resource": {
        "resourceType": "Medication",
        "id": "055a90c5-5796-1583-8f7c-e46db728f31c",
        "code": {
          "coding": [
            {
              "code": "727347",
              "system": "http://www.nlm.nih.gov/research/umls/rxnorm",
              "display": "EPINEPHRINE"
            },
            {
              "code": "183162",
              "system": "2.16.840.1.113883.6.253"
            },
            {
              "code": "3890004000D540",
              "system": "2.16.840.1.113883.6.68"
            },
            {
              "code": "27481",
              "system": "1.2.840.113619.21.100.12.998"
            },
            {
              "code": "49589",
              "system": "1.2.840.113619.21.100.12.999"
            },
            {
              "code": "49502050002",
              "system": "2.16.840.1.113883.6.69"
            }
          ],
          "text": "EPIPEN 2-PAK (EPINEPHRINE) 0.3 MG/0.3ML SOAJ"
        }
      },
      "request": {
        "method": "PUT",
        "url": "Medication/055a90c5-5796-1583-8f7c-e46db728f31c"
      }
    },
    {
      "fullUrl": "urn:uuid:29500722-40d9-ea5c-5d2a-c022e3cb9c4b",
      "resource": {
        "resourceType": "MedicationRequest",
        "id": "29500722-40d9-ea5c-5d2a-c022e3cb9c4b",
        "identifier": [
          {
            "system": "urn:oid:1.2.840.113619.21.1.139060385287897942.9",
            "value": "MedicationOrder/1815500410564180",
            "assigner": {
              "display": " API Resource Identifier"
            }
          }
        ],
        "status": "completed",
        "intent": "order",
        "authoredOn": "2017-07-12T17:40:58.380-05:00",
        "dispenseRequest": {
          "numberOfRepeatsAllowed": 1
        },
        "subject": {
          "reference": "Patient/09241106-f258-7750-983c-0a4efa885c56"
        },
        "medicationReference": {
          "reference": "Medication/055a90c5-5796-1583-8f7c-e46db728f31c"
        },
        "requester": {
          "reference": "Practitioner/fd90dfc0-b6fb-08fc-21fe-873f2e4d41ab"
        }
      },
      "request": {
        "method": "PUT",
        "url": "MedicationRequest/29500722-40d9-ea5c-5d2a-c022e3cb9c4b"
      }
    },
    {
      "fullUrl": "urn:uuid:fd90dfc0-b6fb-08fc-21fe-873f2e4d41ab",
      "resource": {
        "resourceType": "Practitioner",
        "id": "fd90dfc0-b6fb-08fc-21fe-873f2e4d41ab",
        "meta": {
          "profile": [
            "http://hl7.org/fhir/us/core/StructureDefinition/us-core-practitioner"
          ]
        },
        "identifier": [
          {
            "system": "urn:oid:1.2.840.113619.21.1.139060385287897942.2.2",
            "value": "1645445284000280",
            "assigner": {
              "display": " Providers by PVID"
            }
          },
          {
            "system": "urn:oid:1.2.840.113619.21.1.139060385287897942.2.1",
            "value": "28",
            "assigner": {
              "display": " Providers by DoctorFacility"
            }
          },
          {
            "system": "http://hl7.org/fhir/sid/us-npi",
            "value": "1346258563",
            "assigner": {
              "display": "US National Provider Identifiers"
            }
          },
          {
            "system": "urn:oid:2.16.840.1.113883.4.2",
            "value": "363197647",
            "assigner": {
              "display": "Federal Tax Identifier"
            }
          }
        ],
        "name": [
          {
            "family": "Cha-Kim",
            "given": [
              "Jenny"
            ]
          }
        ],
        "address": [
          {
            "line": [
              "Komed Homan Health Center",
              "4259 S Berkeley Avenue"
            ],
            "city": "Chicago",
            "state": "IL",
            "postalCode": "60653"
          }
        ],
        "telecom": [
          {
            "system": "phone",
            "value": "7732687600",
            "use": "work"
          },
          {
            "system": "phone",
            "value": "7732689088",
            "use": "mobile"
          }
        ]
      },
      "request": {
        "method": "PUT",
        "url": "Practitioner/fd90dfc0-b6fb-08fc-21fe-873f2e4d41ab"
      }
    },
    {
      "fullUrl": "urn:uuid:a0e19e16-5a97-5db1-c557-ccec79840025",
      "resource": {
        "resourceType": "MedicationRequest",
        "id": "a0e19e16-5a97-5db1-c557-ccec79840025",
        "identifier": [
          {
            "system": "urn:oid:1.2.840.113619.21.1.139060385287897942.9",
            "value": "MedicationOrder/1903885052553480",
            "assigner": {
              "display": " API Resource Identifier"
            }
          },
          {
            "system": "UNK",
            "value": "5D317E8AB2F343EBAB7D07FF3AC0DFFB",
            "assigner": {
              "display": "Unknown"
            }
          }
        ],
        "status": "completed",
        "intent": "order",
        "authoredOn": "2020-04-30T16:57:38.383-05:00",
        "dispenseRequest": {
          "numberOfRepeatsAllowed": 1
        },
        "subject": {
          "reference": "Patient/09241106-f258-7750-983c-0a4efa885c56"
        },
        "medicationReference": {
          "reference": "Medication/055a90c5-5796-1583-8f7c-e46db728f31c"
        },
        "requester": {
          "reference": "Practitioner/3b9ca24b-d818-6dfb-b82f-508ec4dab52b"
        }
      },
      "request": {
        "method": "PUT",
        "url": "MedicationRequest/a0e19e16-5a97-5db1-c557-ccec79840025"
      }
    },
    {
      "fullUrl": "urn:uuid:3b9ca24b-d818-6dfb-b82f-508ec4dab52b",
      "resource": {
        "resourceType": "Practitioner",
        "id": "3b9ca24b-d818-6dfb-b82f-508ec4dab52b",
        "meta": {
          "profile": [
            "http://hl7.org/fhir/us/core/StructureDefinition/us-core-practitioner"
          ]
        },
        "identifier": [
          {
            "system": "urn:oid:1.2.840.113619.21.1.139060385287897942.2.2",
            "value": "1875366763073290",
            "assigner": {
              "display": " Providers by PVID"
            }
          },
          {
            "system": "urn:oid:1.2.840.113619.21.1.139060385287897942.2.1",
            "value": "1775",
            "assigner": {
              "display": " Providers by DoctorFacility"
            }
          },
          {
            "system": "http://hl7.org/fhir/sid/us-npi",
            "value": "1528454089",
            "assigner": {
              "display": "US National Provider Identifiers"
            }
          },
          {
            "system": "urn:oid:2.16.840.1.113883.4.2",
            "value": "363197647",
            "assigner": {
              "display": "Federal Tax Identifier"
            }
          }
        ],
        "name": [
          {
            "family": "Stanford",
            "given": [
              "William"
            ]
          }
        ],
        "address": [
          {
            "line": [
              "Winfield Moody",
              "1276 N. Clybourn"
            ],
            "city": "Chicago",
            "state": "IL",
            "postalCode": "60610"
          }
        ],
        "telecom": [
          {
            "system": "phone",
            "value": "3123371073",
            "use": "work"
          },
          {
            "system": "phone",
            "value": "3123377616",
            "use": "mobile"
          }
        ]
      },
      "request": {
        "method": "PUT",
        "url": "Practitioner/3b9ca24b-d818-6dfb-b82f-508ec4dab52b"
      }
    },
    {
      "fullUrl": "urn:uuid:6eba06d9-8691-d3fc-a0e1-0abb5a4c5e7b",
      "resource": {
        "resourceType": "MedicationStatement",
        "id": "6eba06d9-8691-d3fc-a0e1-0abb5a4c5e7b",
        "identifier": [
          {
            "system": "urn:oid:1.2.840.113619.21.1.139060385287897942.9",
            "value": "MedicationStatement/1784048771158020",
            "assigner": {
              "display": " API Resource Identifier"
            }
          }
        ],
        "status": "active",
        "effectivePeriod": {
          "start": "2016-07-13T00:00:00-05:00"
        },
        "subject": {
          "reference": "Patient/09241106-f258-7750-983c-0a4efa885c56"
        },
        "medicationReference": {
          "reference": "Medication/84a7d138-9b41-395f-42c8-1843696a3892"
        }
      },
      "request": {
        "method": "PUT",
        "url": "MedicationStatement/6eba06d9-8691-d3fc-a0e1-0abb5a4c5e7b"
      }
    },
    {
      "fullUrl": "urn:uuid:84a7d138-9b41-395f-42c8-1843696a3892",
      "resource": {
        "resourceType": "Medication",
        "id": "84a7d138-9b41-395f-42c8-1843696a3892",
        "code": {
          "coding": [
            {
              "code": "1797933",
              "system": "http://www.nlm.nih.gov/research/umls/rxnorm",
              "display": "FLUTICASONE PROPIONATE"
            },
            {
              "code": "186173",
              "system": "2.16.840.1.113883.6.253"
            },
            {
              "code": "42200032301810",
              "system": "2.16.840.1.113883.6.68"
            },
            {
              "code": "24098",
              "system": "1.2.840.113619.21.100.12.998"
            },
            {
              "code": "88736",
              "system": "1.2.840.113619.21.100.12.999"
            },
            {
              "code": "00135057602",
              "system": "2.16.840.1.113883.6.69"
            }
          ],
          "text": "FLONASE ALLERGY RELIEF (FLUTICASONE PROPIONATE) 50 MCG/ACT SUSP"
        }
      },
      "request": {
        "method": "PUT",
        "url": "Medication/84a7d138-9b41-395f-42c8-1843696a3892"
      }
    },
    {
      "fullUrl": "urn:uuid:dee57d4a-7495-f30a-02f6-c788fcf28468",
      "resource": {
        "resourceType": "MedicationRequest",
        "id": "dee57d4a-7495-f30a-02f6-c788fcf28468",
        "identifier": [
          {
            "system": "urn:oid:1.2.840.113619.21.1.139060385287897942.9",
            "value": "MedicationOrder/1784048771158050",
            "assigner": {
              "display": " API Resource Identifier"
            }
          }
        ],
        "status": "completed",
        "intent": "order",
        "authoredOn": "2016-07-13T17:06:47.163-05:00",
        "dispenseRequest": {
          "numberOfRepeatsAllowed": 3
        },
        "subject": {
          "reference": "Patient/09241106-f258-7750-983c-0a4efa885c56"
        },
        "medicationReference": {
          "reference": "Medication/84a7d138-9b41-395f-42c8-1843696a3892"
        },
        "requester": {
          "reference": "Practitioner/fd90dfc0-b6fb-08fc-21fe-873f2e4d41ab"
        }
      },
      "request": {
        "method": "PUT",
        "url": "MedicationRequest/dee57d4a-7495-f30a-02f6-c788fcf28468"
      }
    },
    {
      "fullUrl": "urn:uuid:43e88615-5633-e241-ce79-d86f55c35242",
      "resource": {
        "resourceType": "MedicationRequest",
        "id": "43e88615-5633-e241-ce79-d86f55c35242",
        "identifier": [
          {
            "system": "urn:oid:1.2.840.113619.21.1.139060385287897942.9",
            "value": "MedicationOrder/1815500348562260",
            "assigner": {
              "display": " API Resource Identifier"
            }
          }
        ],
        "status": "completed",
        "intent": "order",
        "authoredOn": "2018-06-01T20:00:57.520-05:00",
        "dispenseRequest": {
          "numberOfRepeatsAllowed": 3
        },
        "subject": {
          "reference": "Patient/09241106-f258-7750-983c-0a4efa885c56"
        },
        "medicationReference": {
          "reference": "Medication/84a7d138-9b41-395f-42c8-1843696a3892"
        },
        "requester": {
          "reference": "Practitioner/fd90dfc0-b6fb-08fc-21fe-873f2e4d41ab"
        }
      },
      "request": {
        "method": "PUT",
        "url": "MedicationRequest/43e88615-5633-e241-ce79-d86f55c35242"
      }
    },
    {
      "fullUrl": "urn:uuid:4f3f9f8e-b0c4-a866-5a11-cd7a69187acd",
      "resource": {
        "resourceType": "MedicationStatement",
        "id": "4f3f9f8e-b0c4-a866-5a11-cd7a69187acd",
        "identifier": [
          {
            "system": "urn:oid:1.2.840.113619.21.1.139060385287897942.9",
            "value": "MedicationStatement/1684060697006910",
            "assigner": {
              "display": " API Resource Identifier"
            }
          }
        ],
        "status": "active",
        "effectivePeriod": {
          "start": "2013-05-13T00:00:00-05:00"
        },
        "subject": {
          "reference": "Patient/09241106-f258-7750-983c-0a4efa885c56"
        },
        "medicationReference": {
          "reference": "Medication/a6ac3255-5554-a045-32b3-f81b5802cad0"
        }
      },
      "request": {
        "method": "PUT",
        "url": "MedicationStatement/4f3f9f8e-b0c4-a866-5a11-cd7a69187acd"
      }
    },
    {
      "fullUrl": "urn:uuid:a6ac3255-5554-a045-32b3-f81b5802cad0",
      "resource": {
        "resourceType": "Medication",
        "id": "a6ac3255-5554-a045-32b3-f81b5802cad0",
        "code": {
          "coding": [
            {
              "code": "1111345",
              "system": "http://www.nlm.nih.gov/research/umls/rxnorm",
              "display": "OLOPATADINE HCL"
            },
            {
              "code": "124679",
              "system": "2.16.840.1.113883.6.253"
            },
            {
              "code": "86802065102030",
              "system": "2.16.840.1.113883.6.68"
            },
            {
              "code": "25301",
              "system": "1.2.840.113619.21.100.12.998"
            },
            {
              "code": "50307",
              "system": "1.2.840.113619.21.100.12.999"
            },
            {
              "code": "00065815001",
              "system": "2.16.840.1.113883.6.69"
            }
          ],
          "text": "PATADAY (OLOPATADINE HCL) 0.2 % SOLN"
        }
      },
      "request": {
        "method": "PUT",
        "url": "Medication/a6ac3255-5554-a045-32b3-f81b5802cad0"
      }
    },
    {
      "fullUrl": "urn:uuid:89ad49e7-c3d5-4936-8417-b4e37318c8b3",
      "resource": {
        "resourceType": "MedicationRequest",
        "id": "89ad49e7-c3d5-4936-8417-b4e37318c8b3",
        "identifier": [
          {
            "system": "urn:oid:1.2.840.113619.21.1.139060385287897942.9",
            "value": "MedicationOrder/1684060697206910",
            "assigner": {
              "display": " API Resource Identifier"
            }
          }
        ],
        "status": "completed",
        "intent": "order",
        "authoredOn": "2013-05-13T10:38:21.280-05:00",
        "dispenseRequest": {
          "numberOfRepeatsAllowed": 1
        },
        "subject": {
          "reference": "Patient/09241106-f258-7750-983c-0a4efa885c56"
        },
        "medicationReference": {
          "reference": "Medication/a6ac3255-5554-a045-32b3-f81b5802cad0"
        },
        "requester": {
          "reference": "Practitioner/3bf9c991-c193-97f6-1676-3d4bbb689b36"
        }
      },
      "request": {
        "method": "PUT",
        "url": "MedicationRequest/89ad49e7-c3d5-4936-8417-b4e37318c8b3"
      }
    },
    {
      "fullUrl": "urn:uuid:3bf9c991-c193-97f6-1676-3d4bbb689b36",
      "resource": {
        "resourceType": "Practitioner",
        "id": "3bf9c991-c193-97f6-1676-3d4bbb689b36",
        "meta": {
          "profile": [
            "http://hl7.org/fhir/us/core/StructureDefinition/us-core-practitioner"
          ]
        },
        "identifier": [
          {
            "system": "urn:oid:1.2.840.113619.21.1.139060385287897942.2.2",
            "value": "1645445284000330",
            "assigner": {
              "display": " Providers by PVID"
            }
          },
          {
            "system": "urn:oid:1.2.840.113619.21.1.139060385287897942.2.1",
            "value": "33",
            "assigner": {
              "display": " Providers by DoctorFacility"
            }
          },
          {
            "system": "http://hl7.org/fhir/sid/us-npi",
            "value": "1790843993",
            "assigner": {
              "display": "US National Provider Identifiers"
            }
          }
        ],
        "name": [
          {
            "family": "Sallamme",
            "given": [
              "Antoinette"
            ]
          }
        ],
        "address": [
          {
            "line": [
              "4259 S Berkeley",
              "w"
            ],
            "city": "Chicago",
            "state": "IL ",
            "country": "w",
            "postalCode": "60653"
          }
        ],
        "telecom": [
          {
            "system": "phone",
            "value": "7732687600",
            "use": "work"
          },
          {
            "system": "phone",
            "value": "7732689088",
            "use": "mobile"
          }
        ]
      },
      "request": {
        "method": "PUT",
        "url": "Practitioner/3bf9c991-c193-97f6-1676-3d4bbb689b36"
      }
    },
    {
      "fullUrl": "urn:uuid:c692a2aa-525c-bc15-a9ae-f92952275a68",
      "resource": {
        "resourceType": "MedicationStatement",
        "id": "c692a2aa-525c-bc15-a9ae-f92952275a68",
        "identifier": [
          {
            "system": "urn:oid:1.2.840.113619.21.1.139060385287897942.9",
            "value": "MedicationStatement/1587396194004480",
            "assigner": {
              "display": " API Resource Identifier"
            }
          }
        ],
        "status": "active",
        "effectivePeriod": {
          "start": "2010-04-20T00:00:00-05:00"
        },
        "subject": {
          "reference": "Patient/09241106-f258-7750-983c-0a4efa885c56"
        },
        "medicationReference": {
          "reference": "Medication/d9f37eaf-029b-c7ea-2751-4e0818ddd005"
        }
      },
      "request": {
        "method": "PUT",
        "url": "MedicationStatement/c692a2aa-525c-bc15-a9ae-f92952275a68"
      }
    },
    {
      "fullUrl": "urn:uuid:d9f37eaf-029b-c7ea-2751-4e0818ddd005",
      "resource": {
        "resourceType": "Medication",
        "id": "d9f37eaf-029b-c7ea-2751-4e0818ddd005",
        "code": {
          "coding": [
            {
              "system": "1.2.840.113619.21.1.139060385287897942.9",
              "display": "NEBULIZER/ADULT MASK KIT"
            }
          ],
          "text": "NEBULIZER/ADULT MASK KIT"
        }
      },
      "request": {
        "method": "PUT",
        "url": "Medication/d9f37eaf-029b-c7ea-2751-4e0818ddd005"
      }
    },
    {
      "fullUrl": "urn:uuid:b0cbea0b-5acf-52f4-ce24-0e12a5a286e5",
      "resource": {
        "resourceType": "MedicationRequest",
        "id": "b0cbea0b-5acf-52f4-ce24-0e12a5a286e5",
        "identifier": [
          {
            "system": "urn:oid:1.2.840.113619.21.1.139060385287897942.9",
            "value": "MedicationOrder/1587396194154480",
            "assigner": {
              "display": " API Resource Identifier"
            }
          }
        ],
        "status": "completed",
        "intent": "order",
        "dispenseRequest": {
          "numberOfRepeatsAllowed": 3
        },
        "subject": {
          "reference": "Patient/09241106-f258-7750-983c-0a4efa885c56"
        },
        "medicationReference": {
          "reference": "Medication/d9f37eaf-029b-c7ea-2751-4e0818ddd005"
        },
        "requester": {
          "reference": "Practitioner/3bf9c991-c193-97f6-1676-3d4bbb689b36"
        }
      },
      "request": {
        "method": "PUT",
        "url": "MedicationRequest/b0cbea0b-5acf-52f4-ce24-0e12a5a286e5"
      }
    },
    {
      "fullUrl": "urn:uuid:69a45ea0-6868-df3f-beda-b82465926e5e",
      "resource": {
        "resourceType": "MedicationStatement",
        "id": "69a45ea0-6868-df3f-beda-b82465926e5e",
        "identifier": [
          {
            "system": "urn:oid:1.2.840.113619.21.1.139060385287897942.9",
            "value": "MedicationStatement/1544534818205020",
            "assigner": {
              "display": " API Resource Identifier"
            }
          }
        ],
        "status": "active",
        "effectivePeriod": {
          "start": "2008-12-10T00:00:00-06:00"
        },
        "subject": {
          "reference": "Patient/09241106-f258-7750-983c-0a4efa885c56"
        },
        "medicationReference": {
          "reference": "Medication/32e60778-6db9-cc74-4428-02c976c1a8c1"
        }
      },
      "request": {
        "method": "PUT",
        "url": "MedicationStatement/69a45ea0-6868-df3f-beda-b82465926e5e"
      }
    },
    {
      "fullUrl": "urn:uuid:32e60778-6db9-cc74-4428-02c976c1a8c1",
      "resource": {
        "resourceType": "Medication",
        "id": "32e60778-6db9-cc74-4428-02c976c1a8c1",
        "code": {
          "coding": [
            {
              "code": "65513",
              "system": "2.16.840.1.113883.6.253",
              "display": "AEROCHAMBER MV (SPACER/AERO-HOLDING CHAMBERS)"
            },
            {
              "code": "97100550006200",
              "system": "2.16.840.1.113883.6.68"
            },
            {
              "code": "21524",
              "system": "1.2.840.113619.21.100.12.999"
            },
            {
              "code": "04351098510",
              "system": "2.16.840.1.113883.6.69"
            }
          ],
          "text": "AEROCHAMBER MV (SPACER/AERO-HOLDING CHAMBERS)"
        }
      },
      "request": {
        "method": "PUT",
        "url": "Medication/32e60778-6db9-cc74-4428-02c976c1a8c1"
      }
    },
    {
      "fullUrl": "urn:uuid:8af5809c-f326-07d1-a36e-8381d28fffcc",
      "resource": {
        "resourceType": "MedicationRequest",
        "id": "8af5809c-f326-07d1-a36e-8381d28fffcc",
        "identifier": [
          {
            "system": "urn:oid:1.2.840.113619.21.1.139060385287897942.9",
            "value": "MedicationOrder/1544534818355020",
            "assigner": {
              "display": " API Resource Identifier"
            }
          }
        ],
        "status": "completed",
        "intent": "order",
        "dispenseRequest": {
          "numberOfRepeatsAllowed": 0
        },
        "subject": {
          "reference": "Patient/09241106-f258-7750-983c-0a4efa885c56"
        },
        "medicationReference": {
          "reference": "Medication/32e60778-6db9-cc74-4428-02c976c1a8c1"
        },
        "requester": {
          "reference": "Practitioner/3bf9c991-c193-97f6-1676-3d4bbb689b36"
        }
      },
      "request": {
        "method": "PUT",
        "url": "MedicationRequest/8af5809c-f326-07d1-a36e-8381d28fffcc"
      }
    },
    {
      "fullUrl": "urn:uuid:f52cba0c-dc21-aad2-f1c1-aa4bcd0d80ce",
      "resource": {
        "resourceType": "MedicationRequest",
        "id": "f52cba0c-dc21-aad2-f1c1-aa4bcd0d80ce",
        "identifier": [
          {
            "system": "urn:oid:1.2.840.113619.21.1.139060385287897942.9",
            "value": "MedicationOrder/1587395894554480",
            "assigner": {
              "display": " API Resource Identifier"
            }
          }
        ],
        "status": "completed",
        "intent": "order",
        "dispenseRequest": {
          "numberOfRepeatsAllowed": 1
        },
        "subject": {
          "reference": "Patient/09241106-f258-7750-983c-0a4efa885c56"
        },
        "medicationReference": {
          "reference": "Medication/32e60778-6db9-cc74-4428-02c976c1a8c1"
        },
        "requester": {
          "reference": "Practitioner/3bf9c991-c193-97f6-1676-3d4bbb689b36"
        }
      },
      "request": {
        "method": "PUT",
        "url": "MedicationRequest/f52cba0c-dc21-aad2-f1c1-aa4bcd0d80ce"
      }
    },
    {
      "fullUrl": "urn:uuid:96a0208a-d07e-6fd6-f907-65e347234260",
      "resource": {
        "resourceType": "MedicationRequest",
        "id": "96a0208a-d07e-6fd6-f907-65e347234260",
        "identifier": [
          {
            "system": "urn:oid:1.2.840.113619.21.1.139060385287897942.9",
            "value": "MedicationOrder/1675937353057640",
            "assigner": {
              "display": " API Resource Identifier"
            }
          }
        ],
        "status": "completed",
        "intent": "order",
        "authoredOn": "2013-02-08T10:10:22.340-06:00",
        "dispenseRequest": {
          "numberOfRepeatsAllowed": 1
        },
        "subject": {
          "reference": "Patient/09241106-f258-7750-983c-0a4efa885c56"
        },
        "medicationReference": {
          "reference": "Medication/32e60778-6db9-cc74-4428-02c976c1a8c1"
        },
        "requester": {
          "reference": "Practitioner/3bf9c991-c193-97f6-1676-3d4bbb689b36"
        }
      },
      "request": {
        "method": "PUT",
        "url": "MedicationRequest/96a0208a-d07e-6fd6-f907-65e347234260"
      }
    },
    {
      "fullUrl": "urn:uuid:a9fdf994-1e46-d3b2-93e4-ade781ddea26",
      "resource": {
        "resourceType": "MedicationRequest",
        "id": "a9fdf994-1e46-d3b2-93e4-ade781ddea26",
        "identifier": [
          {
            "system": "urn:oid:1.2.840.113619.21.1.139060385287897942.9",
            "value": "MedicationOrder/1779720867265230",
            "assigner": {
              "display": " API Resource Identifier"
            }
          }
        ],
        "status": "completed",
        "intent": "order",
        "authoredOn": "2016-05-24T14:54:42.387-05:00",
        "dispenseRequest": {
          "numberOfRepeatsAllowed": 3
        },
        "subject": {
          "reference": "Patient/09241106-f258-7750-983c-0a4efa885c56"
        },
        "medicationReference": {
          "reference": "Medication/32e60778-6db9-cc74-4428-02c976c1a8c1"
        },
        "requester": {
          "reference": "Practitioner/0737536e-0ea9-4cfd-300b-19c5a1cabb08"
        }
      },
      "request": {
        "method": "PUT",
        "url": "MedicationRequest/a9fdf994-1e46-d3b2-93e4-ade781ddea26"
      }
    },
    {
      "fullUrl": "urn:uuid:0737536e-0ea9-4cfd-300b-19c5a1cabb08",
      "resource": {
        "resourceType": "Practitioner",
        "id": "0737536e-0ea9-4cfd-300b-19c5a1cabb08",
        "meta": {
          "profile": [
            "http://hl7.org/fhir/us/core/StructureDefinition/us-core-practitioner"
          ]
        },
        "identifier": [
          {
            "system": "urn:oid:1.2.840.113619.21.1.139060385287897942.2.2",
            "value": "1750774690846780",
            "assigner": {
              "display": " Providers by PVID"
            }
          },
          {
            "system": "urn:oid:1.2.840.113619.21.1.139060385287897942.2.1",
            "value": "1175",
            "assigner": {
              "display": " Providers by DoctorFacility"
            }
          },
          {
            "system": "urn:oid:2.16.840.1.113883.4.2",
            "value": "363197647",
            "assigner": {
              "display": "Federal Tax Identifier"
            }
          }
        ],
        "name": [
          {
            "family": "Gouda",
            "given": [
              "Suzanne"
            ]
          }
        ],
        "address": [
          {
            "line": [
              "4259 South Berkeley Avenue",
              "."
            ],
            "city": "Chicago ",
            "state": "IL",
            "country": "USA",
            "postalCode": "60659"
          }
        ],
        "telecom": [
          {
            "system": "phone",
            "value": "7732687600",
            "use": "work"
          },
          {
            "system": "phone",
            "value": "7732687600",
            "use": "mobile"
          }
        ]
      },
      "request": {
        "method": "PUT",
        "url": "Practitioner/0737536e-0ea9-4cfd-300b-19c5a1cabb08"
      }
    },
    {
      "fullUrl": "urn:uuid:2b0047d5-600f-5ea8-7c17-150c7f0066ad",
      "resource": {
        "resourceType": "MedicationStatement",
        "id": "2b0047d5-600f-5ea8-7c17-150c7f0066ad",
        "identifier": [
          {
            "system": "urn:oid:1.2.840.113619.21.1.139060385287897942.9",
            "value": "MedicationStatement/1509282939002680",
            "assigner": {
              "display": " API Resource Identifier"
            }
          }
        ],
        "status": "active",
        "effectivePeriod": {
          "start": "2007-10-29T00:00:00-05:00"
        },
        "subject": {
          "reference": "Patient/09241106-f258-7750-983c-0a4efa885c56"
        },
        "medicationReference": {
          "reference": "Medication/c2f90a0c-ea71-f3fa-7649-4cfcad04d14b"
        }
      },
      "request": {
        "method": "PUT",
        "url": "MedicationStatement/2b0047d5-600f-5ea8-7c17-150c7f0066ad"
      }
    },
    {
      "fullUrl": "urn:uuid:c2f90a0c-ea71-f3fa-7649-4cfcad04d14b",
      "resource": {
        "resourceType": "Medication",
        "id": "c2f90a0c-ea71-f3fa-7649-4cfcad04d14b",
        "code": {
          "coding": [
            {
              "code": "630208",
              "system": "http://www.nlm.nih.gov/research/umls/rxnorm",
              "display": "ALBUTEROL SULFATE"
            },
            {
              "code": "680",
              "system": "2.16.840.1.113883.6.253"
            },
            {
              "code": "44201010102515",
              "system": "2.16.840.1.113883.6.68"
            },
            {
              "code": "2486",
              "system": "1.2.840.113619.21.100.12.998"
            },
            {
              "code": "6165",
              "system": "1.2.840.113619.21.100.12.999"
            },
            {
              "code": "00378827052",
              "system": "2.16.840.1.113883.6.69"
            }
          ],
          "text": "(ALBUTEROL SULFATE) (2.5 MG/3ML) 0.083% NEBU"
        }
      },
      "request": {
        "method": "PUT",
        "url": "Medication/c2f90a0c-ea71-f3fa-7649-4cfcad04d14b"
      }
    },
    {
      "fullUrl": "urn:uuid:ab96c629-8d4c-fc07-ed5c-e21a48aad654",
      "resource": {
        "resourceType": "MedicationRequest",
        "id": "ab96c629-8d4c-fc07-ed5c-e21a48aad654",
        "identifier": [
          {
            "system": "urn:oid:1.2.840.113619.21.1.139060385287897942.9",
            "value": "MedicationOrder/1509282939152680",
            "assigner": {
              "display": " API Resource Identifier"
            }
          }
        ],
        "status": "completed",
        "intent": "order",
        "dispenseRequest": {
          "numberOfRepeatsAllowed": 1
        },
        "subject": {
          "reference": "Patient/09241106-f258-7750-983c-0a4efa885c56"
        },
        "medicationReference": {
          "reference": "Medication/c2f90a0c-ea71-f3fa-7649-4cfcad04d14b"
        },
        "requester": {
          "reference": "Practitioner/3bf9c991-c193-97f6-1676-3d4bbb689b36"
        }
      },
      "request": {
        "method": "PUT",
        "url": "MedicationRequest/ab96c629-8d4c-fc07-ed5c-e21a48aad654"
      }
    },
    {
      "fullUrl": "urn:uuid:7c41df86-1a91-5ec2-dd6f-4ebd473089bc",
      "resource": {
        "resourceType": "MedicationRequest",
        "id": "7c41df86-1a91-5ec2-dd6f-4ebd473089bc",
        "identifier": [
          {
            "system": "urn:oid:1.2.840.113619.21.1.139060385287897942.9",
            "value": "MedicationOrder/1544534758055020",
            "assigner": {
              "display": " API Resource Identifier"
            }
          }
        ],
        "status": "completed",
        "intent": "order",
        "dispenseRequest": {
          "numberOfRepeatsAllowed": 0
        },
        "subject": {
          "reference": "Patient/09241106-f258-7750-983c-0a4efa885c56"
        },
        "medicationReference": {
          "reference": "Medication/c2f90a0c-ea71-f3fa-7649-4cfcad04d14b"
        },
        "requester": {
          "reference": "Practitioner/3bf9c991-c193-97f6-1676-3d4bbb689b36"
        }
      },
      "request": {
        "method": "PUT",
        "url": "MedicationRequest/7c41df86-1a91-5ec2-dd6f-4ebd473089bc"
      }
    },
    {
      "fullUrl": "urn:uuid:e75b4b0e-5e2f-cb95-5fd5-5523f08980c5",
      "resource": {
        "resourceType": "MedicationStatement",
        "id": "e75b4b0e-5e2f-cb95-5fd5-5523f08980c5",
        "identifier": [
          {
            "system": "urn:oid:1.2.840.113619.21.1.139060385287897942.9",
            "value": "MedicationStatement/1480418014251210",
            "assigner": {
              "display": " API Resource Identifier"
            }
          }
        ],
        "status": "active",
        "effectivePeriod": {
          "start": "2008-12-10T00:00:00-06:00"
        },
        "subject": {
          "reference": "Patient/09241106-f258-7750-983c-0a4efa885c56"
        },
        "medicationReference": {
          "reference": "Medication/5ac72bfa-9c5d-6183-4ee1-76ad9323e6aa"
        }
      },
      "request": {
        "method": "PUT",
        "url": "MedicationStatement/e75b4b0e-5e2f-cb95-5fd5-5523f08980c5"
      }
    },
    {
      "fullUrl": "urn:uuid:5ac72bfa-9c5d-6183-4ee1-76ad9323e6aa",
      "resource": {
        "resourceType": "Medication",
        "id": "5ac72bfa-9c5d-6183-4ee1-76ad9323e6aa",
        "code": {
          "coding": [
            {
              "code": "745752",
              "system": "http://www.nlm.nih.gov/research/umls/rxnorm",
              "display": "ALBUTEROL SULFATE"
            },
            {
              "code": "120696",
              "system": "2.16.840.1.113883.6.253"
            },
            {
              "code": "44201010103410",
              "system": "2.16.840.1.113883.6.68"
            },
            {
              "code": "2486",
              "system": "1.2.840.113619.21.100.12.998"
            },
            {
              "code": "48997",
              "system": "1.2.840.113619.21.100.12.999"
            },
            {
              "code": "59310057922",
              "system": "2.16.840.1.113883.6.69"
            }
          ],
          "text": "PROAIR HFA (ALBUTEROL SULFATE) 108 (90 Base) MCG/ACT AERS"
        }
      },
      "request": {
        "method": "PUT",
        "url": "Medication/5ac72bfa-9c5d-6183-4ee1-76ad9323e6aa"
      }
    },
    {
      "fullUrl": "urn:uuid:7cfec3bc-48b8-0e43-9b63-55496d92fea8",
      "resource": {
        "resourceType": "MedicationRequest",
        "id": "7cfec3bc-48b8-0e43-9b63-55496d92fea8",
        "identifier": [
          {
            "system": "urn:oid:1.2.840.113619.21.1.139060385287897942.9",
            "value": "MedicationOrder/1779720691249570",
            "assigner": {
              "display": " API Resource Identifier"
            }
          }
        ],
        "status": "completed",
        "intent": "order",
        "authoredOn": "2016-05-24T14:53:22.860-05:00",
        "dispenseRequest": {
          "numberOfRepeatsAllowed": 3
        },
        "subject": {
          "reference": "Patient/09241106-f258-7750-983c-0a4efa885c56"
        },
        "medicationReference": {
          "reference": "Medication/5ac72bfa-9c5d-6183-4ee1-76ad9323e6aa"
        },
        "requester": {
          "reference": "Practitioner/0737536e-0ea9-4cfd-300b-19c5a1cabb08"
        }
      },
      "request": {
        "method": "PUT",
        "url": "MedicationRequest/7cfec3bc-48b8-0e43-9b63-55496d92fea8"
      }
    },
    {
      "fullUrl": "urn:uuid:cf952f8c-7d2c-9360-993b-3d56bf7a46c2",
      "resource": {
        "resourceType": "MedicationRequest",
        "id": "cf952f8c-7d2c-9360-993b-3d56bf7a46c2",
        "identifier": [
          {
            "system": "urn:oid:1.2.840.113619.21.1.139060385287897942.9",
            "value": "MedicationOrder/1815500348562240",
            "assigner": {
              "display": " API Resource Identifier"
            }
          }
        ],
        "status": "completed",
        "intent": "order",
        "authoredOn": "2017-07-12T17:40:56.840-05:00",
        "dispenseRequest": {
          "numberOfRepeatsAllowed": 0
        },
        "subject": {
          "reference": "Patient/09241106-f258-7750-983c-0a4efa885c56"
        },
        "medicationReference": {
          "reference": "Medication/5ac72bfa-9c5d-6183-4ee1-76ad9323e6aa"
        },
        "requester": {
          "reference": "Practitioner/fd90dfc0-b6fb-08fc-21fe-873f2e4d41ab"
        }
      },
      "request": {
        "method": "PUT",
        "url": "MedicationRequest/cf952f8c-7d2c-9360-993b-3d56bf7a46c2"
      }
    },
    {
      "fullUrl": "urn:uuid:78b3b51a-c8bd-f5c6-7d37-94ac20f429a9",
      "resource": {
        "resourceType": "Condition",
        "id": "78b3b51a-c8bd-f5c6-7d37-94ac20f429a9",
        "identifier": [
          {
            "system": "urn:ietf:rfc:3986",
            "value": "urn:oid:1.2.840.113619.21.1.139060385287897942.10.1591243504674.357222"
          }
        ],
        "category": [
          {
            "coding": [
              {
                "code": "problem-item-list",
                "display": "Problem List Item",
                "system": "http://hl7.org/fhir/us/core/ValueSet/us-core-condition-category"
              }
            ]
          }
        ],
        "code": {
          "coding": [
            {
              "code": "55607006",
              "system": "http://snomed.info/sct",
              "display": "Problem"
            }
          ]
        },
        "subject": {
          "reference": "Patient/09241106-f258-7750-983c-0a4efa885c56"
        }
      },
      "request": {
        "method": "PUT",
        "url": "Condition/78b3b51a-c8bd-f5c6-7d37-94ac20f429a9"
      }
    },
    {
      "fullUrl": "urn:uuid:eaf50ca3-9742-0cbd-3cb2-a966a3e98064",
      "resource": {
        "resourceType": "DiagnosticReport",
        "id": "eaf50ca3-9742-0cbd-3cb2-a966a3e98064",
        "identifier": [
          {
            "system": "urn:oid:1.2.840.113619.21.1.139060385287897942.9",
            "value": "Observation/1903965361977820",
            "assigner": {
              "display": "31913-41995-12761042 API Resource Identifier"
            }
          }
        ],
        "status": "final",
        "code": {
          "coding": [
            {
              "code": "30954-2",
              "system": "http://loinc.org",
              "display": "RESULTS"
            }
          ]
        },
        "subject": {
          "reference": "Patient/09241106-f258-7750-983c-0a4efa885c56"
        },
        "result": [
          {
            "reference": "Observation/22f48f30-ea4c-0b37-48c8-5907246e41c7"
          },
          {
            "reference": "Observation/e0ea4288-9839-f8c2-3821-3c09292e55ef"
          },
          {
            "reference": "Observation/e2429212-bf4e-1269-be7d-c533822441de"
          }
        ]
      },
      "request": {
        "method": "PUT",
        "url": "DiagnosticReport/eaf50ca3-9742-0cbd-3cb2-a966a3e98064"
      }
    },
    {
      "fullUrl": "urn:uuid:22f48f30-ea4c-0b37-48c8-5907246e41c7",
      "resource": {
        "resourceType": "Observation",
        "id": "22f48f30-ea4c-0b37-48c8-5907246e41c7",
        "meta": {
          "profile": [
            "http://hl7.org/fhir/us/ecr/StructureDefinition/us-ph-lab-result-observation"
          ]
        },
        "identifier": [
          {
            "system": "urn:oid:1.2.840.113619.21.1.139060385287897942.9",
            "value": "Observation/1903965361977820",
            "assigner": {
              "display": "31913-41995-12761042 API Resource Identifier"
            }
          }
        ],
        "category": [
          {
            "coding": [
              {
                "system": "http://terminology.hl7.org/CodeSystem/observation-category",
                "code": "laboratory"
              }
            ]
          }
        ],
        "status": "final",
        "code": {
          "coding": [
            {
              "code": "5291-0",
              "system": "http://loinc.org",
              "display": "Reagin Ab [Units/volume] in Serum by VDRL"
            },
            {
              "code": "308",
              "system": "1.2.840.113619.21.100.12.1053.139060385287897942",
              "display": "RPR"
            }
          ],
          "text": "rapid plasma reagin antibody, serum"
        },
        "effectiveDateTime": "2020-04-30T16:10:00-05:00",
        "valueString": "Non Reactive",
        "referenceRange": [
          {
            "text": "Non Reactive"
          }
        ],
        "subject": {
          "reference": "Patient/09241106-f258-7750-983c-0a4efa885c56"
        }
      },
      "request": {
        "method": "PUT",
        "url": "Observation/22f48f30-ea4c-0b37-48c8-5907246e41c7"
      }
    },
    {
      "fullUrl": "urn:uuid:e0ea4288-9839-f8c2-3821-3c09292e55ef",
      "resource": {
        "resourceType": "Observation",
        "id": "e0ea4288-9839-f8c2-3821-3c09292e55ef",
        "meta": {
          "profile": [
            "http://hl7.org/fhir/us/ecr/StructureDefinition/us-ph-lab-result-observation"
          ]
        },
        "identifier": [
          {
            "system": "urn:oid:1.2.840.113619.21.1.139060385287897942.9",
            "value": "Observation/1903965361977800",
            "assigner": {
              "display": "31913-41995-12761042 API Resource Identifier"
            }
          }
        ],
        "category": [
          {
            "coding": [
              {
                "system": "http://terminology.hl7.org/CodeSystem/observation-category",
                "code": "laboratory"
              }
            ]
          }
        ],
        "status": "final",
        "code": {
          "coding": [
            {
              "code": "24111-7",
              "system": "http://loinc.org",
              "display": "Neisseria gonorrhoeae DNA [Presence] in Unspecified specimen by NAA with probe detection"
            },
            {
              "code": "2719",
              "system": "1.2.840.113619.21.100.12.1053.139060385287897942",
              "display": "GC DNA PROBE"
            }
          ],
          "text": "Neisseria gonorrhoeae DNA probe"
        },
        "effectiveDateTime": "2020-04-30T16:10:00-05:00",
        "valueString": "Positive",
        "referenceRange": [
          {
            "text": "Negative"
          }
        ],
        "interpretation": [
          {
            "coding": [
              {
                "code": "A",
                "system": "http://terminology.hl7.org/CodeSystem/v3-ObservationInterpretation",
                "display": "Abnormal"
              }
            ],
            "text": "Abnormal"
          }
        ],
        "subject": {
          "reference": "Patient/09241106-f258-7750-983c-0a4efa885c56"
        }
      },
      "request": {
        "method": "PUT",
        "url": "Observation/e0ea4288-9839-f8c2-3821-3c09292e55ef"
      }
    },
    {
      "fullUrl": "urn:uuid:e2429212-bf4e-1269-be7d-c533822441de",
      "resource": {
        "resourceType": "Observation",
        "id": "e2429212-bf4e-1269-be7d-c533822441de",
        "meta": {
          "profile": [
            "http://hl7.org/fhir/us/ecr/StructureDefinition/us-ph-lab-result-observation"
          ]
        },
        "identifier": [
          {
            "system": "urn:oid:1.2.840.113619.21.1.139060385287897942.9",
            "value": "Observation/1903965361977780",
            "assigner": {
              "display": "31913-41995-12761042 API Resource Identifier"
            }
          }
        ],
        "category": [
          {
            "coding": [
              {
                "system": "http://terminology.hl7.org/CodeSystem/observation-category",
                "code": "laboratory"
              }
            ]
          }
        ],
        "status": "final",
        "code": {
          "coding": [
            {
              "code": "21613-5",
              "system": "http://loinc.org",
              "display": "Chlamydia trachomatis DNA [Presence] in Unspecified specimen by NAA with probe detection"
            },
            {
              "code": "14722",
              "system": "1.2.840.113619.21.100.12.1053.139060385287897942",
              "display": "CHLAMYD DNA"
            }
          ],
          "text": "chlamydia DNA probe"
        },
        "effectiveDateTime": "2020-04-30T16:10:00-05:00",
        "valueString": "Positive",
        "referenceRange": [
          {
            "text": "Negative"
          }
        ],
        "interpretation": [
          {
            "coding": [
              {
                "code": "A",
                "system": "http://terminology.hl7.org/CodeSystem/v3-ObservationInterpretation",
                "display": "Abnormal"
              }
            ],
            "text": "Abnormal"
          }
        ],
        "subject": {
          "reference": "Patient/09241106-f258-7750-983c-0a4efa885c56"
        }
      },
      "request": {
        "method": "PUT",
        "url": "Observation/e2429212-bf4e-1269-be7d-c533822441de"
      }
    },
    {
      "fullUrl": "urn:uuid:0f27b27d-9dc8-cf8e-87f1-dfa4a56104e1",
      "resource": {
        "resourceType": "Observation",
        "id": "0f27b27d-9dc8-cf8e-87f1-dfa4a56104e1",
        "meta": {
          "profile": [
            "http://hl7.org/fhir/StructureDefinition/Observation"
          ]
        },
        "identifier": [
          {
            "system": "urn:oid:1.2.840.113619.21.1.139060385287897942.9",
            "value": "Observation/1903881482428480",
            "assigner": {
              "display": "31913-41995-12761042 API Resource Identifier"
            }
          }
        ],
        "category": [
          {
            "coding": [
              {
                "system": "http://terminology.hl7.org/CodeSystem/observation-category",
                "code": "social-history"
              }
            ]
          }
        ],
        "status": "final",
        "code": {
          "coding": [
            {
              "code": "549318",
              "system": "1.2.840.113619.21.100.12.1053.139060385287897942",
              "display": "VAPE_USE"
            },
            {
              "system": "1.2.840.113619.21.100.12.1053.139060385287897942"
            }
          ],
          "text": "if the patient is using/has used a vaping item, Current, Former, Never Used, Not asked"
        },
        "effectiveDateTime": "2020-04-30T15:53:30-05:00",
        "valueString": "No",
        "subject": {
          "reference": "Patient/09241106-f258-7750-983c-0a4efa885c56"
        }
      },
      "request": {
        "method": "PUT",
        "url": "Observation/0f27b27d-9dc8-cf8e-87f1-dfa4a56104e1"
      }
    },
    {
      "fullUrl": "urn:uuid:95b0e429-2c71-9c30-2c77-c8fbe8822d7e",
      "resource": {
        "resourceType": "Observation",
        "id": "95b0e429-2c71-9c30-2c77-c8fbe8822d7e",
        "meta": {
          "profile": [
            "http://hl7.org/fhir/StructureDefinition/Observation"
          ]
        },
        "identifier": [
          {
            "system": "urn:oid:1.2.840.113619.21.1.139060385287897942.9",
            "value": "Observation/1903881370422180",
            "assigner": {
              "display": "31913-41995-12761042 API Resource Identifier"
            }
          }
        ],
        "category": [
          {
            "coding": [
              {
                "system": "http://terminology.hl7.org/CodeSystem/observation-category",
                "code": "social-history"
              }
            ]
          }
        ],
        "status": "final",
        "code": {
          "coding": [
            {
              "code": "304549008",
              "system": "http://snomed.info/sct",
              "display": "Giving encouragement to exercise (procedure)"
            },
            {
              "code": "156247",
              "system": "1.2.840.113619.21.100.12.1053.139060385287897942",
              "display": "EXERPRG REF"
            }
          ],
          "text": "Exercise Program Referral"
        },
        "effectiveDateTime": "2020-04-30T15:53:30-05:00",
        "valueString": "T",
        "subject": {
          "reference": "Patient/09241106-f258-7750-983c-0a4efa885c56"
        }
      },
      "request": {
        "method": "PUT",
        "url": "Observation/95b0e429-2c71-9c30-2c77-c8fbe8822d7e"
      }
    },
    {
      "fullUrl": "urn:uuid:a360e82f-5921-07d3-54a9-6980c09f048b",
      "resource": {
        "resourceType": "Observation",
        "id": "a360e82f-5921-07d3-54a9-6980c09f048b",
        "meta": {
          "profile": [
            "http://hl7.org/fhir/StructureDefinition/Observation"
          ]
        },
        "identifier": [
          {
            "system": "urn:oid:1.2.840.113619.21.1.139060385287897942.9",
            "value": "Observation/1903881370422160",
            "assigner": {
              "display": "31913-41995-12761042 API Resource Identifier"
            }
          }
        ],
        "category": [
          {
            "coding": [
              {
                "system": "http://terminology.hl7.org/CodeSystem/observation-category",
                "code": "social-history"
              }
            ]
          }
        ],
        "status": "final",
        "code": {
          "coding": [
            {
              "code": "156251",
              "system": "1.2.840.113619.21.100.12.1053.139060385287897942",
              "display": "WGTMGMTCOUNS"
            },
            {
              "system": "1.2.840.113619.21.100.12.1053.139060385287897942"
            }
          ],
          "text": "Weight Management Counseling Provided"
        },
        "effectiveDateTime": "2020-04-30T15:53:30-05:00",
        "valueString": "T",
        "subject": {
          "reference": "Patient/09241106-f258-7750-983c-0a4efa885c56"
        }
      },
      "request": {
        "method": "PUT",
        "url": "Observation/a360e82f-5921-07d3-54a9-6980c09f048b"
      }
    },
    {
      "fullUrl": "urn:uuid:f7101e94-faa6-0609-5e5e-817978d16827",
      "resource": {
        "resourceType": "Observation",
        "id": "f7101e94-faa6-0609-5e5e-817978d16827",
        "meta": {
          "profile": [
            "http://hl7.org/fhir/StructureDefinition/Observation"
          ]
        },
        "identifier": [
          {
            "system": "urn:oid:1.2.840.113619.21.1.139060385287897942.9",
            "value": "Observation/1903881370422140",
            "assigner": {
              "display": "31913-41995-12761042 API Resource Identifier"
            }
          }
        ],
        "category": [
          {
            "coding": [
              {
                "system": "http://terminology.hl7.org/CodeSystem/observation-category",
                "code": "social-history"
              }
            ]
          }
        ],
        "status": "final",
        "code": {
          "coding": [
            {
              "code": "241375",
              "system": "1.2.840.113619.21.100.12.1053.139060385287897942",
              "display": "NUTRITIONIVN"
            },
            {
              "system": "1.2.840.113619.21.100.12.1053.139060385287897942"
            }
          ],
          "text": "Nutrition intervention"
        },
        "effectiveDateTime": "2020-04-30T15:53:30-05:00",
        "valueString": "T",
        "subject": {
          "reference": "Patient/09241106-f258-7750-983c-0a4efa885c56"
        }
      },
      "request": {
        "method": "PUT",
        "url": "Observation/f7101e94-faa6-0609-5e5e-817978d16827"
      }
    }
  ]
}
}