{
  "Status": "OK",
  "FhirResource": {
  "resourceType": "Bundle",
  "type": "batch",
  "entry": [
    {
      "fullUrl": "1906844699671480",
      "resource": {
        "resourceType": "Composition",
        "id": "1906844699671480",
        "meta": {
          "profile": [
            "http://hl7.org/fhir/us/ecr/StructureDefinition/eicr-composition"
          ]
        },
        "identifier": {
          "use": "official",
          "type": {
            "coding": [
              {
                "code": "55751-2",
                "system": "http://loinc.org",
                "display": "Initial Public Health Case Report"
              }
            ]
          }
        },
        "extension": [
          {
            "url": "http://hl7.org/fhir/StructureDefinition/composition-clinicaldocument-versionNumber"
          },
          {
            "url": "https://www.hl7.org/implement/standards/product_brief.cfm?product_id=436",
            "valueString": "2016-12-01"
          }
        ],
        "status": "final",
        "type": {
          "coding": [
            {
              "code": "55751-2",
              "system": "http://loinc.org",
              "display": "Initial Public Health Case Report"
            }
          ]
        },
        "date": "2020-06-03T23:04:59-05:00",
        "title": "Initial Public Health Case Report",
        "confidentiality": "N",
        "event": [
          {
            "period": {
              "start": "2020-06-03T23:04:59-05:00"
            }
          }
        ],
        "section": [
          {
            "id": "fa4edbb8-4c3d-f0bc-b34f-04472bfdef41",
            "title": "HISTORY OF PRESENT ILLNESS",
            "text": {
              "status": "generated",
              "div": "Acute pelvic inflammatory disease - Comment Only CT already treated;Sending Rx for tx of Trich today to pharmacy of preference. Discussed Dx, Tx, need for partner Tx, need for pt to have TOR in ~ 3 months per CDC recommendations. Patient verbalizes understanding and is amenable to plan.10 minutes were spent with this patient and greater than 50% of the time was in consultation., brief (1-3 elements), \" This is a phone conversation in lieu of in-office visit due to the coronavirus emergency.\"Melisha Harris is Age: 30 G: 7 P: 2 A: 4 presenting via telehealth appointment for follow-up;Seen last week in office and dx with PID, treated, feeling better;However, STI panel returned demonstrating Trich as well and pt requires tx. , No, No, No, No, phone, Acute pelvic inflammatory disease - New acute PID will treat empirically with cefttriaxone , azithromycin STD screening sent preg test : follow up in 48 hrs if no response go to ED if worsens PAP smear sent today USG pelvis ordered·Instructions: follow up in 48 hrs if no response go to ED if worsens PAP smear sent today USG pelvis ordered, brief (1-3 elements), 30/f g3P3 here for rt sided pelvic pain for 2 days pain is constant 7/10 not assciiated with urinary symptoms, fevr, chills no GI comaplints unprotected sex+ h/o irreg paeriods this month will do preg test also abnormal pap smaer : NILM,HPV + in 2017 , needs repeat pap smear today , No, 05/11/2020, right side, Yes, No, No, No, No"
            },
            "code": {
              "coding": [
                {
                  "code": "10164-2",
                  "system": "http://loinc.org",
                  "display": "HISTORY OF PRESENT ILLNESS"
                }
              ]
            },
            "mode": "snapshot"
          },
          {
            "id": "9ceccb3d-b158-2788-50f5-60cd4306ae8a",
            "title": "REASON FOR VISIT",
            "text": {
              "status": "generated",
              "div": "follow-up visit, Patient has pain on the right side for 2 days"
            },
            "code": {
              "coding": [
                {
                  "code": "29299-5",
                  "system": "http://loinc.org",
                  "display": "REASON FOR VISIT"
                }
              ]
            },
            "mode": "snapshot",
            "extension": [
              {
                "url": "http://hl7.org/fhir/cda/ccda/StructureDefinition/2.16.840.1.113883.10.20.22.2.12",
                "valueString": "follow-up visit, Patient has pain on the right side for 2 days"
              }
            ]
          },
          {
            "id": "bed4751c-ea43-a467-7c1f-7d2eefcdb6d6",
            "title": "SOCIAL HISTORY",
            "text": {
              "status": "generated",
              "div": "<table border=\"1\" width=\"100%\" xmlns=\"urn:hl7-org:v3\"><thead><tr><th align=\"left\">Date</th><th align=\"left\">Observation</th><th align=\"left\">Value</th><th align=\"left\">Provider</th></tr></thead><tbody><tr ID=\"d58342e13-1.2.840.113619.21.1.139060385287897942.10.1591243499819.170180\"><td align=\"left\">2020/05/19</td><td>social history E&amp;M</td><td>Married. Not homeless. Born in USA. Birth City: Chicago. Birth State: IL. YesLives with AuntEmployed full-time. Fin. accountant. Highest education level: bachelor's degree. Sex at birth: female. Gender identity: Female. Gender of partner(s): male. Sexually Active: Yes. </td><td>Claudia Whitaker </td></tr><tr ID=\"d58342e100-1.2.840.113619.21.1.139060385287897942.10.1591243499819.170180\"><td align=\"center\">\"</td><td>social history reviewed E&amp;M</td><td>reviewed today</td><td>Claudia Whitaker </td></tr><tr ID=\"d58342e187-1.2.840.113619.21.1.139060385287897942.10.1591243499819.170180\"><td align=\"left\">2020/05/19</td><td>time of call</td><td>05/19/2020 9:21 AM</td><td>Evelyn Fuentes </td></tr><tr ID=\"d58342e274-1.2.840.113619.21.1.139060385287897942.10.1591243499819.170180\"><td align=\"left\">2020/05/13</td><td>social history E&amp;M</td><td>Married. Not homeless. Born in USA. Birth City: Chicago. Birth State: IL. YesLives with AuntEmployed full-time. Fin. accountant. Highest education level: bachelor's degree. Sex at birth: female. Gender identity: Female. Gender of partner(s): male. Sexually Active: Yes. </td><td>Kanika Sood </td></tr><tr ID=\"d58342e361-1.2.840.113619.21.1.139060385287897942.10.1591243499819.170180\"><td align=\"center\">\"</td><td>social history reviewed E&amp;M</td><td>reviewed today</td><td>Kanika Sood </td></tr><tr ID=\"d58342e448-1.2.840.113619.21.1.139060385287897942.10.1591243499819.170180\"><td align=\"center\">\"</td><td>assessment of health literacy (NCQA PCMH 2014 Standards, 3C10)</td><td>Adequate</td><td>Tiffany Brown </td></tr><tr ID=\"d58342e536-1.2.840.113619.21.1.139060385287897942.10.1591243499819.170180\"><td align=\"center\">\"</td><td>passive cigarette smoke exposure</td><td>No</td><td>Tiffany Brown </td></tr><tr ID=\"d58342e718-1.2.840.113619.21.1.139060385287897942.10.1591243499819.170180\"><td align=\"center\">\"</td><td>is there any chance that you could be pregnant?</td><td>No</td><td>Tiffany Brown </td></tr><tr ID=\"d58342e805-1.2.840.113619.21.1.139060385287897942.10.1591243499819.170180\"><td align=\"center\">\"</td><td>if the patient is using/has used a vaping item, Current, Former, Never Used, Not asked</td><td>No</td><td>Tiffany Brown </td></tr></tbody></table>"
            },
            "code": {
              "coding": [
                {
                  "code": "29762-2",
                  "system": "http://loinc.org",
                  "display": "SOCIAL HISTORY"
                }
              ]
            },
            "mode": "snapshot",
            "entry": [
              {
                "reference": "Observation/777817a3-745d-db66-1ec1-cac6930bda6e"
              },
              {
                "reference": "Observation/33d17621-f5c0-1f30-4ce2-5b6c81d03c66"
              },
              {
                "reference": "Observation/646ee0ee-d7b1-6850-2ff5-3056bd4239fc"
              },
              {
                "reference": "Observation/a5e1c10f-1ed5-422b-499c-db75576bae31"
              },
              {
                "reference": "Observation/6b8faf70-ec5b-9eb2-bebc-58db15a54e50"
              },
              {
                "reference": "Observation/766204a9-3dd2-577f-f4eb-c4208024ba76"
              },
              {
                "reference": "Observation/f97e9e6f-eb2b-ea4e-0b80-7323621f13a0"
              },
              {
                "reference": "Observation/350857f6-1e2c-974b-c499-d83a99359ed1"
              },
              {
                "reference": "Observation/ca19e7e9-2e03-4ebc-a809-3d7f0ba3186f"
              }
            ]
          },
          {
            "id": "ce17b840-715a-ccc3-6795-f15511c40213",
            "title": "ENCOUNTERS",
            "text": {
              "status": "generated",
              "div": "<table border=\"1\" width=\"100%\" xmlns=\"urn:hl7-org:v3\"><thead><tr><th align=\"left\">Date</th><th align=\"left\">Type</th><th align=\"left\">Provider</th><th align=\"left\">Location</th><th align=\"left\">Encounter Diagnosis</th></tr></thead><tbody><tr ID=\"d58358e13-1.2.840.113619.21.1.139060385287897942.10.1591243499835.220628\"><td>2020/05/20 - 2020/05/20</td><td>Phone Note</td><td><list listType=\"unordered\"><item>Kanika Sood </item></list></td><td>Komed Holman Health Center</td><td>UNK</td></tr><tr ID=\"d58358e95-1.2.840.113619.21.1.139060385287897942.10.1591243499835.220628\"><td>2020/05/13 - 2020/05/13</td><td>Lab Report</td><td><list listType=\"unordered\"><item>Kanika Sood </item><item>LinkLogic </item></list></td><td>Near North Health Service Corporation</td><td>UNK</td></tr><tr ID=\"d58358e183-1.2.840.113619.21.1.139060385287897942.10.1591243499835.220628\"><td>2020/05/19 - 2020/05/19</td><td>Virtual Office Visit</td><td><list listType=\"unordered\"><item>Claudia Whitaker </item></list></td><td>North and Kostner Health Center</td><td>UNK</td></tr><tr ID=\"d58358e274-1.2.840.113619.21.1.139060385287897942.10.1591243499835.220628\"><td>2020/05/19 - 2020/05/19</td><td>External Correspondence</td><td><list listType=\"unordered\"><item>Evelyn Fuentes </item></list></td><td>North and Kostner Health Center</td><td>UNK</td></tr><tr ID=\"d58358e356-1.2.840.113619.21.1.139060385287897942.10.1591243499835.220628\"><td>2020/05/18 - 2020/05/18</td><td>Phone Note</td><td><list listType=\"unordered\"><item>Alejandro Perez-Mastache </item></list></td><td>Winfield Moody Health Center</td><td>UNK</td></tr><tr ID=\"d58358e438-1.2.840.113619.21.1.139060385287897942.10.1591243499835.220628\"><td>2020/05/13 - 2020/05/13</td><td>Lab Report</td><td><list listType=\"unordered\"><item>Kanika Sood </item><item>LinkLogic </item></list></td><td>Near North Health Service Corporation</td><td>UNK</td></tr><tr ID=\"d58358e527-1.2.840.113619.21.1.139060385287897942.10.1591243499835.220628\"><td>2020/05/13 - 2020/05/13</td><td>Lab Report</td><td><list listType=\"unordered\"><item>Kanika Sood </item><item>LinkLogic </item></list></td><td>Near North Health Service Corporation</td><td>UNK</td></tr><tr ID=\"d58358e615-1.2.840.113619.21.1.139060385287897942.10.1591243499835.220628\"><td>2020/05/13 - 2020/05/13</td><td>Append</td><td><list listType=\"unordered\"><item>Charles Tate </item></list></td><td>Komed Holman Health Center</td><td>UNK</td></tr><tr ID=\"d58358e697-1.2.840.113619.21.1.139060385287897942.10.1591243499835.220628\"><td>2020/05/13 - 2020/05/13</td><td>Patient Education Correspondence</td><td><list listType=\"unordered\"><item>Amber Millsapp </item><item>Charles Tate </item></list></td><td>Komed Holman Health Center</td><td>UNK</td></tr><tr ID=\"d58358e785-1.2.840.113619.21.1.139060385287897942.10.1591243499835.220628\"><td>2020/05/13 - 2020/05/13</td><td>Internal Correspondence</td><td><list listType=\"unordered\"><item>Amber Millsapp </item></list></td><td>Komed Holman Health Center</td><td>UNK</td></tr><tr ID=\"d58358e867-1.2.840.113619.21.1.139060385287897942.10.1591243499835.220628\"><td>2020/05/13 - 2020/05/13</td><td>Append</td><td><list listType=\"unordered\"><item>Kanika Sood </item><item>Tiffany Brown </item></list></td><td>Komed Holman Health Center</td><td>UNK</td></tr><tr ID=\"d58358e955-1.2.840.113619.21.1.139060385287897942.10.1591243499835.220628\"><td>2020/05/13 - 2020/05/13</td><td>Office Visit</td><td><list listType=\"unordered\"><item>Kanika Sood </item><item>Salama Witherspoon </item><item>Tiffany Brown </item><item>Charles Tate </item></list></td><td>Komed Holman Health Center</td><td><list listType=\"unordered\"><item>Abdominal pain</item><item>Pelvic pain</item><item>Screening for std</item><item>Acute pelvic inflammatory disease</item><item>Screening Pap smear exam for cervical cancer</item></list></td></tr><tr ID=\"d58358e1074-1.2.840.113619.21.1.139060385287897942.10.1591243499835.220628\"><td>2020/03/28 - 2020/03/28</td><td>Letter</td><td><list listType=\"unordered\"><item>Bonnie W Thomas </item></list></td><td>Komed Holman Health Center</td><td>UNK</td></tr><tr ID=\"d58358e1156-1.2.840.113619.21.1.139060385287897942.10.1591243499835.220628\"><td>2020/03/20 - 2020/03/20</td><td>Imaging Report</td><td><list listType=\"unordered\"><item>Bonnie W Thomas </item><item>LinkLogic </item></list></td><td>Komed Holman Health Center</td><td>UNK</td></tr></tbody></table>"
            },
            "code": {
              "coding": [
                {
                  "code": "46240-8",
                  "system": "http://loinc.org",
                  "display": "ENCOUNTERS"
                }
              ]
            },
            "mode": "snapshot"
          },
          {
            "id": "2f85f994-e27a-814d-dcf2-a1c47174a09c",
            "title": "MEDICATIONS ADMINISTERED",
            "text": {
              "status": "generated",
              "div": "<table border=\"1\" width=\"100%\" xmlns=\"urn:hl7-org:v3\"><thead><tr><th align=\"left\">Medication</th><th align=\"left\">Status</th><th align=\"left\">Directions</th><th align=\"left\">Dates</th><th align=\"left\">Provider</th><th align=\"left\">Indications</th><th align=\"left\">Fill Instructions</th></tr></thead><tbody><tr ID=\"d58323e13-1.2.840.113619.21.1.139060385287897942.10.1591243499773.295338\"><td ID=\"d58323e100\">CEFTRIAXONE SODIUM</td><td>in-progress</td><td ID=\"d58323e109\">Buttock</td><td>2020/05/13 - 2020/05/13</td><td>Tiffany Brown </td><td>Acute pelvic inflammatory disease</td><td ID=\"d58323e102a1065-1.2.840.113619.21.1.139060385287897942.10.1591243499773.295338\">Mfg: Apotex Patient tolerated injection well. Patient observed for 10mins. No reaction noted.</td></tr></tbody></table>"
            },
            "code": {
              "coding": [
                {
                  "code": "29549-3",
                  "system": "http://loinc.org",
                  "display": "MEDICATIONS ADMINISTERED"
                }
              ]
            },
            "mode": "snapshot",
            "entry": [
              {
                "reference": "MedicationAdministration/edaf74bd-d4d8-f1d1-1ccb-7cb95d6231e8"
              }
            ]
          },
          {
            "id": "fb6e583c-9b8c-752a-6fac-e90afed99d81",
            "title": "HISTORY OF MEDICATION USE",
            "text": {
              "status": "generated",
              "div": "<table border=\"1\" width=\"100%\" xmlns=\"urn:hl7-org:v3\"><thead><tr><th align=\"left\">Medication</th><th align=\"left\">Status</th><th align=\"left\">Instructions</th><th align=\"left\">Dates</th><th align=\"left\">Provider</th><th align=\"left\">Indications</th><th align=\"left\">Comments</th></tr></thead><tbody><tr ID=\"d58445e18-1.2.840.113619.21.1.139060385287897942.10.1591243500033.623812\"><td ID=\"d58445e77\">METRONIDAZOLE 500 MG ORAL TABLET</td><td>active</td><td ID=\"d58445e80\">4 tablets once</td><td>2020/05/19</td><td>Claudia Whitaker </td><td /><td /></tr><tr ID=\"d58445e96-1.2.840.113619.21.1.139060385287897942.10.1591243500033.623812\"><td ID=\"d58445e155\">CEFTRIAXONE SODIUM 250 MG INJECTION SOLUTION RECONSTITUTED</td><td>active</td><td ID=\"d58445e158\">to be given in clinic IM</td><td>2020/05/13</td><td>Kanika Sood </td><td /><td /></tr><tr ID=\"d58445e164-1.2.840.113619.21.1.139060385287897942.10.1591243500033.623812\"><td ID=\"d58445e227\">AZITHROMYCIN 500 MG ORAL TABLET</td><td>active</td><td ID=\"d58445e230\">2 tablets to be taken together</td><td>2020/05/13</td><td>Kanika Sood </td><td /><td /></tr><tr ID=\"d58445e246-1.2.840.113619.21.1.139060385287897942.10.1591243500033.623812\"><td ID=\"d58445e305\">GABAPENTIN 100 MG ORAL CAPSULE</td><td>active</td><td ID=\"d58445e308\">1 by mouth three times a day As Needed</td><td>2020/02/24</td><td>Bonnie W Thomas </td><td /><td /></tr><tr ID=\"d58445e331-1.2.840.113619.21.1.139060385287897942.10.1591243500033.623812\"><td ID=\"d58445e390\">CYCLOBENZAPRINE HCL 10 MG ORAL TABLET</td><td>active</td><td ID=\"d58445e393\">1 By Mouth Three Times a Day As Needed</td><td>2020/02/24</td><td>Bonnie W Thomas </td><td /><td /></tr><tr ID=\"d58445e416-1.2.840.113619.21.1.139060385287897942.10.1591243500033.623812\"><td ID=\"d58445e475\">DOCUSATE SODIUM 250 MG ORAL CAPSULE</td><td>active</td><td ID=\"d58445e478\">take one capsule once or twice a day as needed for constipation</td><td>2019/05/22</td><td>Crystal Kittisopikul </td><td /><td /></tr><tr ID=\"d58445e495-1.2.840.113619.21.1.139060385287897942.10.1591243500033.623812\"><td ID=\"d58445e554\">IBUPROFEN 600 MG ORAL TABLET</td><td>active</td><td ID=\"d58445e557\">take one tablet three times a day as needed for pain</td><td>2019/05/22</td><td>Crystal Kittisopikul </td><td /><td /></tr><tr ID=\"d58445e580-1.2.840.113619.21.1.139060385287897942.10.1591243500033.623812\"><td ID=\"d58445e639\">OMEPRAZOLE 40 MG ORAL CAPSULE DELAYED RELEASE</td><td>active</td><td ID=\"d58445e642\">take one tablet per day thirty minutes before food to prevent heartburn</td><td>2019/05/22</td><td>Crystal Kittisopikul </td><td /><td /></tr><tr ID=\"d58445e658-1.2.840.113619.21.1.139060385287897942.10.1591243500033.623812\"><td ID=\"d58445e717\">CETIRIZINE HCL 10 MG ORAL TABLET</td><td>active</td><td ID=\"d58445e720\">1 pill by mouth every day As Needed</td><td>2015/08/29</td><td>Bonnie W Thomas </td><td /><td /></tr><tr ID=\"d58445e736-1.2.840.113619.21.1.139060385287897942.10.1591243500033.623812\"><td ID=\"d58445e799\">FLONASE ALLERGY RELIEF 50 MCG/ACT NASAL SUSPENSION</td><td>active</td><td ID=\"d58445e802\">2 sprays each nostril every day</td><td>2017/06/08</td><td>Emily Robertson-Shelby </td><td /><td /></tr><tr ID=\"d58445e818-1.2.840.113619.21.1.139060385287897942.10.1591243500033.623812\"><td ID=\"d58445e867\">QVAR 80 MCG/ACT INHALATION AEROSOL SOLUTION</td><td>active</td><td ID=\"d58445e870\">Inhale 2 puffs twice per day in the morning and in the evening</td><td>2015/08/29</td><td>Bonnie W Thomas </td><td /><td /></tr><tr ID=\"d58445e886-1.2.840.113619.21.1.139060385287897942.10.1591243500033.623812\"><td ID=\"d58445e945\">PROVENTIL HFA 108 (90 BASE) MCG/ACT INHALATION AEROSOL SOLUTION</td><td>active</td><td ID=\"d58445e948\">1-2 puffs every 4-6 hours as needed for shortness of breath</td><td>2016/10/05</td><td>Bonnie W Thomas </td><td /><td /></tr></tbody></table>"
            },
            "code": {
              "coding": [
                {
                  "code": "10160-0",
                  "system": "http://loinc.org",
                  "display": "HISTORY OF MEDICATION USE"
                }
              ]
            },
            "mode": "snapshot"
          },
          {
            "id": "8dc1d320-018d-36d7-7665-31135a0884cb",
            "title": "Problems",
            "text": {
              "status": "generated",
              "div": "No Known Problems"
            },
            "code": {
              "coding": [
                {
                  "code": "11450-4",
                  "system": "http://loinc.org",
                  "display": "Problem list - Reported"
                }
              ]
            },
            "mode": "snapshot",
            "entry": [
              {
                "display": "Problem - Problem",
                "reference": "Condition/a3a0e64a-7310-7e3a-a095-9ddfe16f0f83"
              }
            ]
          },
          {
            "id": "a95fd939-f273-0d67-12c3-8ee15bed26f5",
            "title": "RESULTS",
            "text": {
              "status": "generated",
              "div": "<table border=\"1\" width=\"100%\" xmlns=\"urn:hl7-org:v3\"><thead><tr><th align=\"left\">Date</th><th align=\"left\">Observation</th><th align=\"left\">Value</th><th align=\"left\">Provider</th><th align=\"left\">Reference Range</th><th align=\"left\">Interpretation</th><th align=\"left\">Location</th></tr></thead><tbody><tr ID=\"d58371e13-1.2.840.113619.21.1.139060385287897942.10.1591243499851.365585\"><td align=\"left\">2020/05/13</td><td>Neisseria gonorrhoeae DNA probe</td><td>Negative</td><td>LinkLogic </td><td>Negative</td><td /><td /></tr><tr ID=\"d58371e112-1.2.840.113619.21.1.139060385287897942.10.1591243499851.365585\"><td align=\"center\">\"</td><td>chlamydia DNA probe</td><td>Positive</td><td>LinkLogic </td><td>Negative</td><td>Abnormal</td><td /></tr><tr ID=\"d58371e217-1.2.840.113619.21.1.139060385287897942.10.1591243499851.365585\"><td align=\"center\">\"</td><td>rapid plasma reagin antibody, serum</td><td>Non Reactive</td><td>LinkLogic </td><td>Non Reactive</td><td /><td /></tr></tbody></table>"
            },
            "code": {
              "coding": [
                {
                  "code": "30954-2",
                  "system": "http://loinc.org",
                  "display": "RESULTS"
                }
              ]
            },
            "mode": "snapshot",
            "entry": [
              {
                "reference": "Observation/9cd4a526-aac2-b293-4db8-95717141fb17",
                "display": "Neisseria gonorrhoeae DNA probe"
              },
              {
                "reference": "Observation/80d5d9af-f11e-a5e5-fed6-b8b2a6045fb2",
                "display": "chlamydia DNA probe"
              },
              {
                "reference": "Observation/20dcb427-81c1-41a9-2c4e-9156fb9c204d",
                "display": "rapid plasma reagin antibody, serum"
              }
            ]
          }
        ],
        "subject": {
          "reference": "Patient/72bbe4eb-4bbd-bb73-bae9-8fd32c380882"
        },
        "encounter": {
          "reference": "Encounter/bb44bb8e-af4d-7cf5-b8a0-bfed3557d83a"
        },
        "custodian": {
          "reference": "Organization/2bae76ef-8be0-941b-6672-72b84298d223"
        },
        "author": [
          {
            "reference": "PractitionerRole/22cf0a2c-3c50-d0cf-88ee-78f19e27f85d"
          },
          {
            "reference": "Device/48c756a8-18ae-5310-e8d7-2de6957e99b8"
          }
        ]
      },
      "request": {
        "method": "PUT",
        "url": "Composition/1906844699671480"
      }
    },
    {
      "fullUrl": "urn:uuid:bb44bb8e-af4d-7cf5-b8a0-bfed3557d83a",
      "resource": {
        "resourceType": "Encounter",
        "id": "bb44bb8e-af4d-7cf5-b8a0-bfed3557d83a",
        "status": "unknown",
        "class": {
          "code": "PHC2237",
          "system": "2.16.840.1.114222.4.5.274",
          "display": "External Encounter"
        },
        "identifier": [
          {
            "extension": {
              "url": "http://hl7.org/fhir/ValueSet/data-absent-reason",
              "valueCode": "not-applicable"
            }
          }
        ],
        "subject": {
          "reference": "Patient/72bbe4eb-4bbd-bb73-bae9-8fd32c380882"
        },
        "location": [
          {
            "id": "2.16.840.1.113883.4.6",
            "location": {
              "reference": "Location/bdf4bd41-5f95-3434-7bad-c22f469af6db",
              "display": "None"
            },
            "extension": [
              {
                "url": "http://build.fhir.org/ig/HL7/case-reporting/StructureDefinition-us-ph-location-definitions.html#Location.type",
                "valueCodeableConcept": {
                  "coding": [
                    {
                      "system": "http://hl7.org/fhir/sid/us-npi"
                    }
                  ]
                }
              }
            ]
          }
        ],
        "serviceProvider": {
          "reference": "Organization/42e178bb-0fd1-7329-a02e-c06b5c9782b8"
        },
        "participant": [
          {
            "type": [
              {
                "coding": [
                  {
                    "system": "http://terminology.hl7.org/CodeSystem/v3-ParticipationType",
                    "code": "ATND"
                  }
                ]
              }
            ],
            "individual": {
              "reference": "PractitionerRole/e8d30303-e0a1-2dbb-bddb-d208c95aad77"
            }
          }
        ]
      },
      "request": {
        "method": "PUT",
        "url": "Encounter/bb44bb8e-af4d-7cf5-b8a0-bfed3557d83a"
      }
    },
    {
      "fullUrl": "urn:uuid:bdf4bd41-5f95-3434-7bad-c22f469af6db",
      "resource": {
        "resourceType": "Location",
        "id": "bdf4bd41-5f95-3434-7bad-c22f469af6db",
        "identifier": [
          {
            "system": "http://hl7.org/fhir/sid/us-npi",
            "_value": {
              "extension": {
                "url": "http://hl7.org/fhir/ValueSet/data-absent-reason",
                "valueCode": "not-applicable"
              }
            }
          }
        ],
        "type": [
          {
            "coding": [
              {
                "system": "http://hl7.org/fhir/sid/us-npi"
              }
            ]
          }
        ]
      },
      "request": {
        "method": "PUT",
        "url": "Location/bdf4bd41-5f95-3434-7bad-c22f469af6db"
      }
    },
    {
      "fullUrl": "urn:uuid:42e178bb-0fd1-7329-a02e-c06b5c9782b8",
      "resource": {
        "resourceType": "Organization",
        "id": "42e178bb-0fd1-7329-a02e-c06b5c9782b8"
      },
      "request": {
        "method": "PUT",
        "url": "Organization/42e178bb-0fd1-7329-a02e-c06b5c9782b8"
      }
    },
    {
      "fullUrl": "urn:uuid:e8d30303-e0a1-2dbb-bddb-d208c95aad77",
      "resource": {
        "resourceType": "Practitioner",
        "id": "e8d30303-e0a1-2dbb-bddb-d208c95aad77",
        "meta": {
          "profile": [
            "http://hl7.org/fhir/us/core/StructureDefinition/us-core-practitioner"
          ]
        },
        "extension": [
          {
            "url": "http://hl7.org/fhir/StructureDefinition/_datatype",
            "valueString": "Responsible Party"
          }
        ],
        "identifier": [
          {
            "system": "http://hl7.org/fhir/sid/us-npi",
            "_value": {
              "extension": {
                "url": "http://hl7.org/fhir/ValueSet/data-absent-reason",
                "valueCode": "not-applicable"
              }
            }
          }
        ]
      },
      "request": {
        "method": "PUT",
        "url": "Practitioner/e8d30303-e0a1-2dbb-bddb-d208c95aad77"
      }
    },
    {
      "resource": {
        "resourceType": "PractitionerRole",
        "id": "e8d30303-e0a1-2dbb-bddb-d208c95aad77",
        "practitioner": {
          "reference": "Practitioner/e8d30303-e0a1-2dbb-bddb-d208c95aad77"
        },
        "organization": {
          "reference": "Organization/43eaaf8e-f805-d37c-8e4e-77965eef87aa"
        }
      }
    },
    {
      "fullUrl": "urn:uuid:43eaaf8e-f805-d37c-8e4e-77965eef87aa",
      "resource": {
        "resourceType": "Organization",
        "id": "43eaaf8e-f805-d37c-8e4e-77965eef87aa"
      },
      "request": {
        "method": "PUT",
        "url": "Organization/43eaaf8e-f805-d37c-8e4e-77965eef87aa"
      }
    },
    {
      "fullUrl": "urn:uuid:2bae76ef-8be0-941b-6672-72b84298d223",
      "resource": {
        "resourceType": "Organization",
        "id": "2bae76ef-8be0-941b-6672-72b84298d223",
        "identifier": [
          {
            "system": "urn:oid:1.2.840.113619.21.1.139060385287897942.9",
            "value": "Organization/LO-1454412490000610",
            "assigner": {
              "display": " API Resource Identifier"
            }
          },
          {
            "system": "UNK",
            "value": "LO-1454412490000610",
            "assigner": {
              "display": "Organization Identifier"
            }
          },
          {
            "system": "urn:oid:2.16.840.1.113883.4.2",
            "value": "363197647",
            "assigner": {
              "display": "Tax ID number"
            }
          }
        ],
        "name": "Komed Holman Health Center",
        "address": [
          {
            "line": [
              "4259 S. Berkeley"
            ],
            "city": "Chicago",
            "state": "IL",
            "country": "USA",
            "postalCode": "60653"
          }
        ],
        "telecom": [
          {
            "system": "phone",
            "value": "7732687600",
            "use": "work"
          }
        ]
      },
      "request": {
        "method": "PUT",
        "url": "Organization/2bae76ef-8be0-941b-6672-72b84298d223"
      }
    },
    {
      "fullUrl": "urn:uuid:406c3e36-d27a-041b-61a8-e29df69f50e1",
      "resource": {
        "resourceType": "Practitioner",
        "id": "406c3e36-d27a-041b-61a8-e29df69f50e1",
        "meta": {
          "profile": [
            "http://hl7.org/fhir/us/core/StructureDefinition/us-core-practitioner"
          ]
        },
        "identifier": [
          {
            "system": "urn:oid:1.2.840.113619.21.1.139060385287897942.2.2",
            "value": "1467041069000630",
            "assigner": {
              "display": " Providers by PVID"
            }
          },
          {
            "system": "urn:oid:1.2.840.113619.21.1.139060385287897942.2.1",
            "value": "365",
            "assigner": {
              "display": " Providers by DoctorFacility"
            }
          }
        ],
        "name": [
          {
            "family": "Nurse Desk",
            "given": [
              "KH WH"
            ]
          }
        ],
        "address": [
          {
            "line": [
              "Winfield Moody",
              "1276 N Clybourn"
            ],
            "city": "Chicago",
            "state": "IL",
            "postalCode": "60653"
          }
        ],
        "telecom": [
          {
            "system": "phone",
            "value": "3123371073",
            "use": "work"
          },
          {
            "system": "phone",
            "value": "3123377616",
            "use": "mobile"
          }
        ]
      },
      "request": {
        "method": "PUT",
        "url": "Practitioner/406c3e36-d27a-041b-61a8-e29df69f50e1"
      }
    },
    {
      "fullUrl": "urn:uuid:01fe444a-5df3-6915-447b-5b16fe2c6872",
      "resource": {
        "resourceType": "Organization",
        "id": "01fe444a-5df3-6915-447b-5b16fe2c6872",
        "identifier": [
          {
            "system": "urn:oid:1.2.840.113619.21.1.139060385287897942.9",
            "value": "Organization/DF-76",
            "assigner": {
              "display": " API Resource Identifier"
            }
          },
          {
            "system": "UNK",
            "value": "DF-76",
            "assigner": {
              "display": "Organization Identifier"
            }
          },
          {
            "system": "http://hl7.org/fhir/sid/us-npi",
            "value": "1821079088",
            "assigner": {
              "display": "National Provider Identifier"
            }
          },
          {
            "system": "urn:oid:2.16.840.1.113883.4.2",
            "value": "363197647",
            "assigner": {
              "display": "Tax ID number"
            }
          }
        ],
        "name": "Winfield Moody Health Center",
        "address": [
          {
            "line": [
              "1276 N Clybourn"
            ],
            "city": "Chicago",
            "state": "IL ",
            "postalCode": "60610     "
          }
        ],
        "telecom": [
          {
            "system": "phone",
            "value": "3123371073     ",
            "use": "work"
          }
        ]
      },
      "request": {
        "method": "PUT",
        "url": "Organization/01fe444a-5df3-6915-447b-5b16fe2c6872"
      }
    },
    {
      "resource": {
        "resourceType": "PractitionerRole",
        "id": "22cf0a2c-3c50-d0cf-88ee-78f19e27f85d",
        "organization": {
          "reference": "Organization/01fe444a-5df3-6915-447b-5b16fe2c6872"
        },
        "practitioner": {
          "reference": "Practitioner/406c3e36-d27a-041b-61a8-e29df69f50e1"
        }
      }
    },
    {
      "fullUrl": "urn:uuid:48c756a8-18ae-5310-e8d7-2de6957e99b8",
      "resource": {
        "resourceType": "Device",
        "id": "48c756a8-18ae-5310-e8d7-2de6957e99b8",
        "identifier": [
          {
            "system": "urn:ietf:rfc:3986",
            "value": "urn:oid:1.2.840.113619.21.1.139060385287897942.11"
          }
        ],
        "manufacturer": "12.3/9.12",
        "version": [
          {
            "value": "GE Healthcare API Server"
          }
        ],
        "property": [
          {
            "type": {
              "coding": [
                {
                  "system": "http://hl7.org/fhir/device-category",
                  "code": "software",
                  "display": "software"
                }
              ]
            }
          }
        ],
        "owner": {
          "reference": "Organization/2bae76ef-8be0-941b-6672-72b84298d223"
        }
      },
      "request": {
        "method": "PUT",
        "url": "Device/48c756a8-18ae-5310-e8d7-2de6957e99b8"
      }
    },
    {
      "fullUrl": "urn:uuid:72bbe4eb-4bbd-bb73-bae9-8fd32c380882",
      "resource": {
        "resourceType": "Patient",
        "id": "72bbe4eb-4bbd-bb73-bae9-8fd32c380882",
        "meta": {
          "profile": [
            "http://hl7.org/fhir/us/core/StructureDefinition/us-core-patient"
          ]
        },
        "identifier": [
          {
            "system": "urn:oid:1.2.840.113619.21.1.139060385287897942.2.1.1.1",
            "value": "1607607480054040"
          },
          {
            "system": "urn:oid:1.2.840.113619.21.1.139060385287897942.2.1.1.2",
            "value": "88132",
            "assigner": {
              "display": "GE EMR-CPS PatientId"
            }
          },
          {
            "system": "urn:oid:1.2.840.113619.21.1.139060385287897942.2.1.1",
            "value": "K115209",
            "assigner": {
              "display": "GE EMR-CPS PatientMRN"
            }
          },
          {
            "system": "http://hl7.org/fhir/sid/us-ssn",
            "value": "999-99-9999",
            "assigner": {
              "display": "Social Security Administration"
            }
          }
        ],
        "name": [
          {
            "use": "official",
            "family": "Patient2",
            "given": [
              "Sample"
            ]
          }
        ],
        "birthDate": "1991-02-01",
        "deceasedBoolean": false,
        "gender": "female",
        "extension": [
          {
            "url": "http://hl7.org/fhir/us/core/StructureDefinition/us-core-race",
            "extension": [
              {
                "url": "ombCategory",
                "valueCoding": {
                  "code": "2054-5",
                  "system": "urn:oid:2.16.840.1.113883.6.238",
                  "display": "Black or African American"
                }
              },
              {
                "url": "text",
                "valueString": "Black or African American"
              }
            ]
          },
          {
            "url": "http://hl7.org/fhir/us/core/StructureDefinition/us-core-ethnicity",
            "extension": [
              {
                "url": "ombCategory",
                "valueCoding": {
                  "code": "2186-5",
                  "system": "urn:oid:2.16.840.1.113883.6.238",
                  "display": "Not Hispanic or Latino"
                }
              },
              {
                "url": "text",
                "valueString": "Not Hispanic or Latino"
              }
            ]
          }
        ],
        "address": [
          {
            "line": [
              "2 Sample Street",
              "apt 2"
            ],
            "city": "Chicago",
            "state": "IL",
            "postalCode": "60653"
          }
        ],
        "telecom": [
          {
            "system": "phone",
            "value": "3129998888",
            "use": "mobile"
          }
        ],
        "communication": [
          {
            "language": {
              "coding": [
                {
                  "system": "urn:ietf:bcp:47",
                  "code": "en",
                  "display": "English"
                }
              ]
            },
            "preferred": true
          }
        ]
      },
      "request": {
        "method": "PUT",
        "url": "Patient/72bbe4eb-4bbd-bb73-bae9-8fd32c380882"
      }
    },
    {
      "fullUrl": "urn:uuid:edaf74bd-d4d8-f1d1-1ccb-7cb95d6231e8",
      "resource": {
        "resourceType": "MedicationAdministration",
        "id": "edaf74bd-d4d8-f1d1-1ccb-7cb95d6231e8",
        "identifier": [
          {
            "system": "urn:oid:1.2.840.113619.21.1.139060385287897942.9",
            "value": "MedicationAdministration/1904987483642960",
            "assigner": {
              "display": "31913-41995-12761042 API Resource Identifier"
            }
          },
          {
            "system": "UNK",
            "value": "1904987483642960",
            "assigner": {
              "display": "Unknown"
            }
          }
        ],
        "status": "in-progress",
        "effectivePeriod": {
          "start": "2020-05-13T11:08:00-05:00",
          "end": "2020-05-13T11:08:00-05:00"
        },
        "dosage": {
          "route": {
            "coding": [
              {
                "code": "C28161",
                "system": "2.16.840.1.113883.3.26.1.1",
                "display": "INTRAMUSCULAR"
              }
            ],
            "text": "INTRAMUSCULAR"
          },
          "dose": {
            "value": 250,
            "unit": "mg"
          }
        },
        "subject": {
          "reference": "Patient/72bbe4eb-4bbd-bb73-bae9-8fd32c380882"
        },
        "medicationReference": {
          "reference": "Medication/ed9eef1e-30d2-4ca6-5799-9cabdcc38fa9"
        }
      },
      "request": {
        "method": "PUT",
        "url": "MedicationAdministration/edaf74bd-d4d8-f1d1-1ccb-7cb95d6231e8"
      }
    },
    {
      "fullUrl": "urn:uuid:ed9eef1e-30d2-4ca6-5799-9cabdcc38fa9",
      "resource": {
        "resourceType": "Medication",
        "id": "ed9eef1e-30d2-4ca6-5799-9cabdcc38fa9",
        "code": {
          "coding": [
            {
              "code": "309092",
              "system": "http://www.nlm.nih.gov/research/umls/rxnorm",
              "display": "CEFTRIAXONE SODIUM"
            },
            {
              "code": "25900",
              "system": "2.16.840.1.113883.6.253"
            },
            {
              "code": "02300090102105",
              "system": "2.16.840.1.113883.6.68"
            },
            {
              "code": "2880",
              "system": "1.2.840.113619.21.100.12.998"
            },
            {
              "code": "8229",
              "system": "1.2.840.113619.21.100.12.999"
            },
            {
              "code": "00143985925",
              "system": "2.16.840.1.113883.6.69"
            }
          ],
          "text": "(CEFTRIAXONE SODIUM) 250 MG SOLR"
        }
      },
      "request": {
        "method": "PUT",
        "url": "Medication/ed9eef1e-30d2-4ca6-5799-9cabdcc38fa9"
      }
    },
    {
      "fullUrl": "urn:uuid:32ab4dbc-2771-de55-b55c-ac192ba02ea4",
      "resource": {
        "resourceType": "MedicationStatement",
        "id": "32ab4dbc-2771-de55-b55c-ac192ba02ea4",
        "identifier": [
          {
            "system": "urn:oid:1.2.840.113619.21.1.139060385287897942.9",
            "value": "MedicationStatement/1905506426725800",
            "assigner": {
              "display": " API Resource Identifier"
            }
          }
        ],
        "status": "active",
        "effectivePeriod": {
          "start": "2020-05-19T00:00:00-05:00"
        },
        "subject": {
          "reference": "Patient/72bbe4eb-4bbd-bb73-bae9-8fd32c380882"
        },
        "medicationReference": {
          "reference": "Medication/73f38654-986e-2891-bff8-b7d86d803125"
        }
      },
      "request": {
        "method": "PUT",
        "url": "MedicationStatement/32ab4dbc-2771-de55-b55c-ac192ba02ea4"
      }
    },
    {
      "fullUrl": "urn:uuid:73f38654-986e-2891-bff8-b7d86d803125",
      "resource": {
        "resourceType": "Medication",
        "id": "73f38654-986e-2891-bff8-b7d86d803125",
        "code": {
          "coding": [
            {
              "code": "311681",
              "system": "http://www.nlm.nih.gov/research/umls/rxnorm",
              "display": "METRONIDAZOLE"
            },
            {
              "code": "13461",
              "system": "2.16.840.1.113883.6.253"
            },
            {
              "code": "16000035000310",
              "system": "2.16.840.1.113883.6.68"
            },
            {
              "code": "860",
              "system": "1.2.840.113619.21.100.12.998"
            },
            {
              "code": "1648",
              "system": "1.2.840.113619.21.100.12.999"
            },
            {
              "code": "23155056901",
              "system": "2.16.840.1.113883.6.69"
            }
          ],
          "text": "(METRONIDAZOLE) 500 MG TABS"
        }
      },
      "request": {
        "method": "PUT",
        "url": "Medication/73f38654-986e-2891-bff8-b7d86d803125"
      }
    },
    {
      "fullUrl": "urn:uuid:688d9325-bd38-5315-aad9-0941ccd28802",
      "resource": {
        "resourceType": "MedicationRequest",
        "id": "688d9325-bd38-5315-aad9-0941ccd28802",
        "identifier": [
          {
            "system": "urn:oid:1.2.840.113619.21.1.139060385287897942.9",
            "value": "MedicationOrder/1905506426725840",
            "assigner": {
              "display": " API Resource Identifier"
            }
          },
          {
            "system": "UNK",
            "value": "2BFA2A1A35EE4FD2A81CA5C8EB78BA5B",
            "assigner": {
              "display": "Unknown"
            }
          }
        ],
        "status": "completed",
        "intent": "order",
        "authoredOn": "2020-05-19T11:25:39.687-05:00",
        "dispenseRequest": {
          "numberOfRepeatsAllowed": 0
        },
        "subject": {
          "reference": "Patient/72bbe4eb-4bbd-bb73-bae9-8fd32c380882"
        },
        "medicationReference": {
          "reference": "Medication/73f38654-986e-2891-bff8-b7d86d803125"
        },
        "requester": {
          "reference": "Practitioner/f3b1f540-c19e-6a7e-903f-1c1fad3285ff"
        }
      },
      "request": {
        "method": "PUT",
        "url": "MedicationRequest/688d9325-bd38-5315-aad9-0941ccd28802"
      }
    },
    {
      "fullUrl": "urn:uuid:f3b1f540-c19e-6a7e-903f-1c1fad3285ff",
      "resource": {
        "resourceType": "Practitioner",
        "id": "f3b1f540-c19e-6a7e-903f-1c1fad3285ff",
        "meta": {
          "profile": [
            "http://hl7.org/fhir/us/core/StructureDefinition/us-core-practitioner"
          ]
        },
        "identifier": [
          {
            "system": "urn:oid:1.2.840.113619.21.1.139060385287897942.2.2",
            "value": "1836661042856240",
            "assigner": {
              "display": " Providers by PVID"
            }
          },
          {
            "system": "urn:oid:1.2.840.113619.21.1.139060385287897942.2.1",
            "value": "1636",
            "assigner": {
              "display": " Providers by DoctorFacility"
            }
          },
          {
            "system": "http://hl7.org/fhir/sid/us-npi",
            "value": "1528383197",
            "assigner": {
              "display": "US National Provider Identifiers"
            }
          },
          {
            "system": "urn:oid:2.16.840.1.113883.4.2",
            "value": "363197647",
            "assigner": {
              "display": "Federal Tax Identifier"
            }
          }
        ],
        "name": [
          {
            "family": "Whitaker",
            "given": [
              "Claudia"
            ]
          }
        ],
        "address": [
          {
            "line": [
              "Winfield Moody",
              "1276 N. Clybourn"
            ],
            "city": "Chicago",
            "state": "IL",
            "postalCode": "60610"
          }
        ],
        "telecom": [
          {
            "system": "phone",
            "value": "3123371073",
            "use": "work"
          },
          {
            "system": "phone",
            "value": "3123377616",
            "use": "mobile"
          }
        ]
      },
      "request": {
        "method": "PUT",
        "url": "Practitioner/f3b1f540-c19e-6a7e-903f-1c1fad3285ff"
      }
    },
    {
      "fullUrl": "urn:uuid:555e3389-fa49-c3ff-0946-4e454e43e416",
      "resource": {
        "resourceType": "MedicationStatement",
        "id": "555e3389-fa49-c3ff-0946-4e454e43e416",
        "identifier": [
          {
            "system": "urn:oid:1.2.840.113619.21.1.139060385287897942.9",
            "value": "MedicationStatement/1904984986522180",
            "assigner": {
              "display": " API Resource Identifier"
            }
          }
        ],
        "status": "active",
        "effectivePeriod": {
          "start": "2020-05-13T00:00:00-05:00"
        },
        "subject": {
          "reference": "Patient/72bbe4eb-4bbd-bb73-bae9-8fd32c380882"
        },
        "medicationReference": {
          "reference": "Medication/080f6a96-def3-492a-8a1e-fdc39118cb3a"
        }
      },
      "request": {
        "method": "PUT",
        "url": "MedicationStatement/555e3389-fa49-c3ff-0946-4e454e43e416"
      }
    },
    {
      "fullUrl": "urn:uuid:080f6a96-def3-492a-8a1e-fdc39118cb3a",
      "resource": {
        "resourceType": "Medication",
        "id": "080f6a96-def3-492a-8a1e-fdc39118cb3a",
        "code": {
          "coding": [
            {
              "code": "309092",
              "system": "http://www.nlm.nih.gov/research/umls/rxnorm",
              "display": "CEFTRIAXONE SODIUM"
            },
            {
              "code": "25900",
              "system": "2.16.840.1.113883.6.253"
            },
            {
              "code": "02300090102105",
              "system": "2.16.840.1.113883.6.68"
            },
            {
              "code": "2880",
              "system": "1.2.840.113619.21.100.12.998"
            },
            {
              "code": "8229",
              "system": "1.2.840.113619.21.100.12.999"
            },
            {
              "code": "00143985925",
              "system": "2.16.840.1.113883.6.69"
            }
          ],
          "text": "(CEFTRIAXONE SODIUM) 250 MG SOLR"
        }
      },
      "request": {
        "method": "PUT",
        "url": "Medication/080f6a96-def3-492a-8a1e-fdc39118cb3a"
      }
    },
    {
      "fullUrl": "urn:uuid:2cd8c6d6-689b-d4b1-db1d-ef2368686b4a",
      "resource": {
        "resourceType": "MedicationRequest",
        "id": "2cd8c6d6-689b-d4b1-db1d-ef2368686b4a",
        "identifier": [
          {
            "system": "urn:oid:1.2.840.113619.21.1.139060385287897942.9",
            "value": "MedicationOrder/1904984986522240",
            "assigner": {
              "display": " API Resource Identifier"
            }
          },
          {
            "system": "UNK",
            "value": "B02A15E782C3429DA66C43F387ADF85C",
            "assigner": {
              "display": "Unknown"
            }
          }
        ],
        "status": "completed",
        "intent": "order",
        "authoredOn": "2020-05-13T10:35:14.577-05:00",
        "dispenseRequest": {
          "numberOfRepeatsAllowed": 0
        },
        "subject": {
          "reference": "Patient/72bbe4eb-4bbd-bb73-bae9-8fd32c380882"
        },
        "medicationReference": {
          "reference": "Medication/080f6a96-def3-492a-8a1e-fdc39118cb3a"
        },
        "requester": {
          "reference": "Practitioner/736b4270-8732-7f46-fd74-d30aa98a28a0"
        }
      },
      "request": {
        "method": "PUT",
        "url": "MedicationRequest/2cd8c6d6-689b-d4b1-db1d-ef2368686b4a"
      }
    },
    {
      "fullUrl": "urn:uuid:736b4270-8732-7f46-fd74-d30aa98a28a0",
      "resource": {
        "resourceType": "Practitioner",
        "id": "736b4270-8732-7f46-fd74-d30aa98a28a0",
        "meta": {
          "profile": [
            "http://hl7.org/fhir/us/core/StructureDefinition/us-core-practitioner"
          ]
        },
        "identifier": [
          {
            "system": "urn:oid:1.2.840.113619.21.1.139060385287897942.2.2",
            "value": "1812543899030740",
            "assigner": {
              "display": " Providers by PVID"
            }
          },
          {
            "system": "urn:oid:1.2.840.113619.21.1.139060385287897942.2.1",
            "value": "1508",
            "assigner": {
              "display": " Providers by DoctorFacility"
            }
          },
          {
            "system": "http://hl7.org/fhir/sid/us-npi",
            "value": "1982982096",
            "assigner": {
              "display": "US National Provider Identifiers"
            }
          },
          {
            "system": "urn:oid:2.16.840.1.113883.4.2",
            "value": "363197647",
            "assigner": {
              "display": "Federal Tax Identifier"
            }
          }
        ],
        "name": [
          {
            "family": "Sood",
            "given": [
              "Kanika"
            ]
          }
        ],
        "address": [
          {
            "line": [
              "Winfield Moody",
              "1276 N. Clybourn"
            ],
            "city": "Chicago",
            "state": "IL",
            "postalCode": "60610"
          }
        ],
        "telecom": [
          {
            "system": "phone",
            "value": "3123371073",
            "use": "work"
          },
          {
            "system": "phone",
            "value": "3123377616",
            "use": "mobile"
          }
        ]
      },
      "request": {
        "method": "PUT",
        "url": "Practitioner/736b4270-8732-7f46-fd74-d30aa98a28a0"
      }
    },
    {
      "fullUrl": "urn:uuid:f491c30a-db08-082f-0526-bc11b61e3d72",
      "resource": {
        "resourceType": "MedicationStatement",
        "id": "f491c30a-db08-082f-0526-bc11b61e3d72",
        "identifier": [
          {
            "system": "urn:oid:1.2.840.113619.21.1.139060385287897942.9",
            "value": "MedicationStatement/1904984907517050",
            "assigner": {
              "display": " API Resource Identifier"
            }
          }
        ],
        "status": "active",
        "effectivePeriod": {
          "start": "2020-05-13T00:00:00-05:00"
        },
        "subject": {
          "reference": "Patient/72bbe4eb-4bbd-bb73-bae9-8fd32c380882"
        },
        "medicationReference": {
          "reference": "Medication/65f63e94-64a1-cf89-3c94-11189604d417"
        }
      },
      "request": {
        "method": "PUT",
        "url": "MedicationStatement/f491c30a-db08-082f-0526-bc11b61e3d72"
      }
    },
    {
      "fullUrl": "urn:uuid:65f63e94-64a1-cf89-3c94-11189604d417",
      "resource": {
        "resourceType": "Medication",
        "id": "65f63e94-64a1-cf89-3c94-11189604d417",
        "code": {
          "coding": [
            {
              "code": "248656",
              "system": "http://www.nlm.nih.gov/research/umls/rxnorm",
              "display": "AZITHROMYCIN"
            },
            {
              "code": "749780",
              "system": "http://www.nlm.nih.gov/research/umls/rxnorm",
              "display": "{3 (azithromycin 500 MG Oral Tablet) } Pack"
            },
            {
              "code": "44793",
              "system": "2.16.840.1.113883.6.253"
            },
            {
              "code": "03400010000334",
              "system": "2.16.840.1.113883.6.68"
            },
            {
              "code": "5799",
              "system": "1.2.840.113619.21.100.12.998"
            },
            {
              "code": "1944",
              "system": "1.2.840.113619.21.100.12.999"
            },
            {
              "code": "50111078810",
              "system": "2.16.840.1.113883.6.69"
            }
          ],
          "text": "(AZITHROMYCIN) 500 MG TABS"
        }
      },
      "request": {
        "method": "PUT",
        "url": "Medication/65f63e94-64a1-cf89-3c94-11189604d417"
      }
    },
    {
      "fullUrl": "urn:uuid:f7ea13ad-9ac8-3eec-1e80-45991d0bde99",
      "resource": {
        "resourceType": "MedicationRequest",
        "id": "f7ea13ad-9ac8-3eec-1e80-45991d0bde99",
        "identifier": [
          {
            "system": "urn:oid:1.2.840.113619.21.1.139060385287897942.9",
            "value": "MedicationOrder/1904984986522170",
            "assigner": {
              "display": " API Resource Identifier"
            }
          },
          {
            "system": "UNK",
            "value": "C36F166DC83B475BB2274FED64C7815D",
            "assigner": {
              "display": "Unknown"
            }
          }
        ],
        "status": "completed",
        "intent": "order",
        "authoredOn": "2020-05-13T10:35:14.263-05:00",
        "dispenseRequest": {
          "numberOfRepeatsAllowed": 0
        },
        "subject": {
          "reference": "Patient/72bbe4eb-4bbd-bb73-bae9-8fd32c380882"
        },
        "medicationReference": {
          "reference": "Medication/65f63e94-64a1-cf89-3c94-11189604d417"
        },
        "requester": {
          "reference": "Practitioner/736b4270-8732-7f46-fd74-d30aa98a28a0"
        }
      },
      "request": {
        "method": "PUT",
        "url": "MedicationRequest/f7ea13ad-9ac8-3eec-1e80-45991d0bde99"
      }
    },
    {
      "fullUrl": "urn:uuid:3a27c1e9-051a-b2b1-40fe-f5dc9c1de671",
      "resource": {
        "resourceType": "MedicationStatement",
        "id": "3a27c1e9-051a-b2b1-40fe-f5dc9c1de671",
        "identifier": [
          {
            "system": "urn:oid:1.2.840.113619.21.1.139060385287897942.9",
            "value": "MedicationStatement/1898156671019310",
            "assigner": {
              "display": " API Resource Identifier"
            }
          }
        ],
        "status": "active",
        "dosage": [
          {
            "doseAndRate": [
              {
                "doseQuantity": {
                  "value": 1,
                  "unit": "{Capsule}"
                }
              }
            ]
          }
        ],
        "subject": {
          "reference": "Patient/72bbe4eb-4bbd-bb73-bae9-8fd32c380882"
        },
        "medicationReference": {
          "reference": "Medication/49729e41-a925-5e34-4366-1599a575fc1f"
        }
      },
      "request": {
        "method": "PUT",
        "url": "MedicationStatement/3a27c1e9-051a-b2b1-40fe-f5dc9c1de671"
      }
    },
    {
      "fullUrl": "urn:uuid:49729e41-a925-5e34-4366-1599a575fc1f",
      "resource": {
        "resourceType": "Medication",
        "id": "49729e41-a925-5e34-4366-1599a575fc1f",
        "code": {
          "coding": [
            {
              "code": "310430",
              "system": "http://www.nlm.nih.gov/research/umls/rxnorm",
              "display": "GABAPENTIN"
            },
            {
              "code": "46443",
              "system": "2.16.840.1.113883.6.253"
            },
            {
              "code": "72600030000110",
              "system": "2.16.840.1.113883.6.68"
            },
            {
              "code": "6148",
              "system": "1.2.840.113619.21.100.12.998"
            },
            {
              "code": "16204",
              "system": "1.2.840.113619.21.100.12.999"
            },
            {
              "code": "16714050301",
              "system": "2.16.840.1.113883.6.69"
            }
          ],
          "text": "(GABAPENTIN) 100 MG CAPS"
        }
      },
      "request": {
        "method": "PUT",
        "url": "Medication/49729e41-a925-5e34-4366-1599a575fc1f"
      }
    },
    {
      "fullUrl": "urn:uuid:52d83916-54df-9d40-a896-2ff3c9dd7405",
      "resource": {
        "resourceType": "MedicationRequest",
        "id": "52d83916-54df-9d40-a896-2ff3c9dd7405",
        "identifier": [
          {
            "system": "urn:oid:1.2.840.113619.21.1.139060385287897942.9",
            "value": "MedicationOrder/1898156691021040",
            "assigner": {
              "display": " API Resource Identifier"
            }
          },
          {
            "system": "UNK",
            "value": "35DBB355A171499CBCDEE83A173281B7",
            "assigner": {
              "display": "Unknown"
            }
          }
        ],
        "status": "completed",
        "intent": "order",
        "authoredOn": "2020-02-24T09:49:05.500-06:00",
        "dispenseRequest": {
          "numberOfRepeatsAllowed": 1
        },
        "subject": {
          "reference": "Patient/72bbe4eb-4bbd-bb73-bae9-8fd32c380882"
        },
        "medicationReference": {
          "reference": "Medication/49729e41-a925-5e34-4366-1599a575fc1f"
        },
        "requester": {
          "reference": "Practitioner/0c14db5b-0a6f-3d2f-c378-5498b098be1b"
        }
      },
      "request": {
        "method": "PUT",
        "url": "MedicationRequest/52d83916-54df-9d40-a896-2ff3c9dd7405"
      }
    },
    {
      "fullUrl": "urn:uuid:0c14db5b-0a6f-3d2f-c378-5498b098be1b",
      "resource": {
        "resourceType": "Practitioner",
        "id": "0c14db5b-0a6f-3d2f-c378-5498b098be1b",
        "meta": {
          "profile": [
            "http://hl7.org/fhir/us/core/StructureDefinition/us-core-practitioner"
          ]
        },
        "identifier": [
          {
            "system": "urn:oid:1.2.840.113619.21.1.139060385287897942.2.2",
            "value": "1831907170950920",
            "assigner": {
              "display": " Providers by PVID"
            }
          },
          {
            "system": "urn:oid:1.2.840.113619.21.1.139060385287897942.2.1",
            "value": "1613",
            "assigner": {
              "display": " Providers by DoctorFacility"
            }
          },
          {
            "system": "http://hl7.org/fhir/sid/us-npi",
            "value": "1851321467",
            "assigner": {
              "display": "US National Provider Identifiers"
            }
          },
          {
            "system": "urn:oid:2.16.840.1.113883.4.2",
            "value": "363197647",
            "assigner": {
              "display": "Federal Tax Identifier"
            }
          }
        ],
        "name": [
          {
            "family": "Thomas",
            "given": [
              "Bonnie",
              "W"
            ]
          }
        ],
        "address": [
          {
            "line": [
              "Winfield Moody",
              "1276 N. Clybourn"
            ],
            "city": "Chicago",
            "state": "IL",
            "postalCode": "60610"
          }
        ],
        "telecom": [
          {
            "system": "phone",
            "value": "3123371073",
            "use": "work"
          },
          {
            "system": "phone",
            "value": "3123377616",
            "use": "mobile"
          }
        ]
      },
      "request": {
        "method": "PUT",
        "url": "Practitioner/0c14db5b-0a6f-3d2f-c378-5498b098be1b"
      }
    },
    {
      "fullUrl": "urn:uuid:afaa7db9-6779-b4a8-6af0-3b6eef886335",
      "resource": {
        "resourceType": "MedicationStatement",
        "id": "afaa7db9-6779-b4a8-6af0-3b6eef886335",
        "identifier": [
          {
            "system": "urn:oid:1.2.840.113619.21.1.139060385287897942.9",
            "value": "MedicationStatement/1898156597011270",
            "assigner": {
              "display": " API Resource Identifier"
            }
          }
        ],
        "status": "active",
        "dosage": [
          {
            "doseAndRate": [
              {
                "doseQuantity": {
                  "value": 1,
                  "unit": "{Tablet}"
                }
              }
            ]
          }
        ],
        "subject": {
          "reference": "Patient/72bbe4eb-4bbd-bb73-bae9-8fd32c380882"
        },
        "medicationReference": {
          "reference": "Medication/6268f2dc-3d8d-9a2a-c327-87da8171a43e"
        }
      },
      "request": {
        "method": "PUT",
        "url": "MedicationStatement/afaa7db9-6779-b4a8-6af0-3b6eef886335"
      }
    },
    {
      "fullUrl": "urn:uuid:6268f2dc-3d8d-9a2a-c327-87da8171a43e",
      "resource": {
        "resourceType": "Medication",
        "id": "6268f2dc-3d8d-9a2a-c327-87da8171a43e",
        "code": {
          "coding": [
            {
              "code": "828348",
              "system": "http://www.nlm.nih.gov/research/umls/rxnorm",
              "display": "CYCLOBENZAPRINE HCL"
            },
            {
              "code": "5573",
              "system": "2.16.840.1.113883.6.253"
            },
            {
              "code": "75100050100305",
              "system": "2.16.840.1.113883.6.68"
            },
            {
              "code": "365",
              "system": "1.2.840.113619.21.100.12.998"
            },
            {
              "code": "8708",
              "system": "1.2.840.113619.21.100.12.999"
            },
            {
              "code": "00378075101",
              "system": "2.16.840.1.113883.6.69"
            }
          ],
          "text": "(CYCLOBENZAPRINE HCL) 10 MG TABS"
        }
      },
      "request": {
        "method": "PUT",
        "url": "Medication/6268f2dc-3d8d-9a2a-c327-87da8171a43e"
      }
    },
    {
      "fullUrl": "urn:uuid:0ef951ae-32ee-56eb-7132-47929022fb69",
      "resource": {
        "resourceType": "MedicationRequest",
        "id": "0ef951ae-32ee-56eb-7132-47929022fb69",
        "identifier": [
          {
            "system": "urn:oid:1.2.840.113619.21.1.139060385287897942.9",
            "value": "MedicationOrder/1898156671019300",
            "assigner": {
              "display": " API Resource Identifier"
            }
          },
          {
            "system": "UNK",
            "value": "C800F8EA99B340C3BF206E5F29E18A80",
            "assigner": {
              "display": "Unknown"
            }
          }
        ],
        "status": "completed",
        "intent": "order",
        "authoredOn": "2020-02-24T09:49:05.150-06:00",
        "dispenseRequest": {
          "numberOfRepeatsAllowed": 3
        },
        "subject": {
          "reference": "Patient/72bbe4eb-4bbd-bb73-bae9-8fd32c380882"
        },
        "medicationReference": {
          "reference": "Medication/6268f2dc-3d8d-9a2a-c327-87da8171a43e"
        },
        "requester": {
          "reference": "Practitioner/0c14db5b-0a6f-3d2f-c378-5498b098be1b"
        }
      },
      "request": {
        "method": "PUT",
        "url": "MedicationRequest/0ef951ae-32ee-56eb-7132-47929022fb69"
      }
    },
    {
      "fullUrl": "urn:uuid:357d40e1-5a8c-0767-fea6-d8b201e546f4",
      "resource": {
        "resourceType": "MedicationStatement",
        "id": "357d40e1-5a8c-0767-fea6-d8b201e546f4",
        "identifier": [
          {
            "system": "urn:oid:1.2.840.113619.21.1.139060385287897942.9",
            "value": "MedicationStatement/1874154899871890",
            "assigner": {
              "display": " API Resource Identifier"
            }
          }
        ],
        "status": "active",
        "effectivePeriod": {
          "start": "2019-05-22T00:00:00-05:00"
        },
        "subject": {
          "reference": "Patient/72bbe4eb-4bbd-bb73-bae9-8fd32c380882"
        },
        "medicationReference": {
          "reference": "Medication/b4948579-1384-01d3-4c22-ea58247902d0"
        }
      },
      "request": {
        "method": "PUT",
        "url": "MedicationStatement/357d40e1-5a8c-0767-fea6-d8b201e546f4"
      }
    },
    {
      "fullUrl": "urn:uuid:b4948579-1384-01d3-4c22-ea58247902d0",
      "resource": {
        "resourceType": "Medication",
        "id": "b4948579-1384-01d3-4c22-ea58247902d0",
        "code": {
          "coding": [
            {
              "code": "1245468",
              "system": "http://www.nlm.nih.gov/research/umls/rxnorm",
              "display": "DOCUSATE SODIUM"
            },
            {
              "code": "6928",
              "system": "2.16.840.1.113883.6.253"
            },
            {
              "code": "46500010300120",
              "system": "2.16.840.1.113883.6.68"
            },
            {
              "code": "446",
              "system": "1.2.840.113619.21.100.12.998"
            },
            {
              "code": "403",
              "system": "1.2.840.113619.21.100.12.999"
            },
            {
              "code": "10135013601",
              "system": "2.16.840.1.113883.6.69"
            }
          ],
          "text": "(DOCUSATE SODIUM) 250 MG CAPS"
        }
      },
      "request": {
        "method": "PUT",
        "url": "Medication/b4948579-1384-01d3-4c22-ea58247902d0"
      }
    },
    {
      "fullUrl": "urn:uuid:52acadb0-d44b-bb0d-39fd-466fb398e7fa",
      "resource": {
        "resourceType": "MedicationRequest",
        "id": "52acadb0-d44b-bb0d-39fd-466fb398e7fa",
        "identifier": [
          {
            "system": "urn:oid:1.2.840.113619.21.1.139060385287897942.9",
            "value": "MedicationOrder/1874154899871950",
            "assigner": {
              "display": " API Resource Identifier"
            }
          },
          {
            "system": "UNK",
            "value": "4C063221AE6348D296A021F9FF5F5275",
            "assigner": {
              "display": "Unknown"
            }
          }
        ],
        "status": "completed",
        "intent": "order",
        "authoredOn": "2019-05-22T14:36:53.473-05:00",
        "dispenseRequest": {
          "numberOfRepeatsAllowed": 1
        },
        "subject": {
          "reference": "Patient/72bbe4eb-4bbd-bb73-bae9-8fd32c380882"
        },
        "medicationReference": {
          "reference": "Medication/b4948579-1384-01d3-4c22-ea58247902d0"
        },
        "requester": {
          "reference": "Practitioner/c90036b1-ce03-a7cc-8c49-54f5dc7f1aab"
        }
      },
      "request": {
        "method": "PUT",
        "url": "MedicationRequest/52acadb0-d44b-bb0d-39fd-466fb398e7fa"
      }
    },
    {
      "fullUrl": "urn:uuid:c90036b1-ce03-a7cc-8c49-54f5dc7f1aab",
      "resource": {
        "resourceType": "Practitioner",
        "id": "c90036b1-ce03-a7cc-8c49-54f5dc7f1aab",
        "meta": {
          "profile": [
            "http://hl7.org/fhir/us/core/StructureDefinition/us-core-practitioner"
          ]
        },
        "identifier": [
          {
            "system": "urn:oid:1.2.840.113619.21.1.139060385287897942.2.2",
            "value": "1831906828922920",
            "assigner": {
              "display": " Providers by PVID"
            }
          },
          {
            "system": "urn:oid:1.2.840.113619.21.1.139060385287897942.2.1",
            "value": "1612",
            "assigner": {
              "display": " Providers by DoctorFacility"
            }
          },
          {
            "system": "http://hl7.org/fhir/sid/us-npi",
            "value": "1508107657",
            "assigner": {
              "display": "US National Provider Identifiers"
            }
          },
          {
            "system": "urn:oid:2.16.840.1.113883.4.2",
            "value": "363197647",
            "assigner": {
              "display": "Federal Tax Identifier"
            }
          }
        ],
        "name": [
          {
            "family": "Kittisopikul",
            "given": [
              "Crystal"
            ]
          }
        ],
        "address": [
          {
            "line": [
              "Winfield Moody",
              "1276 N. Clybourn"
            ],
            "city": "Chicago",
            "state": "IL",
            "postalCode": "60610"
          }
        ],
        "telecom": [
          {
            "system": "phone",
            "value": "3123371073",
            "use": "work"
          },
          {
            "system": "phone",
            "value": "3123377616",
            "use": "mobile"
          }
        ]
      },
      "request": {
        "method": "PUT",
        "url": "Practitioner/c90036b1-ce03-a7cc-8c49-54f5dc7f1aab"
      }
    },
    {
      "fullUrl": "urn:uuid:ae6fc8cb-f689-b41c-fbd1-9ddd954bdfb9",
      "resource": {
        "resourceType": "MedicationStatement",
        "id": "ae6fc8cb-f689-b41c-fbd1-9ddd954bdfb9",
        "identifier": [
          {
            "system": "urn:oid:1.2.840.113619.21.1.139060385287897942.9",
            "value": "MedicationStatement/1874154899871820",
            "assigner": {
              "display": " API Resource Identifier"
            }
          }
        ],
        "status": "active",
        "dosage": [
          {
            "doseAndRate": [
              {
                "doseQuantity": {
                  "value": 1,
                  "unit": "{Tablet}"
                }
              }
            ]
          }
        ],
        "subject": {
          "reference": "Patient/72bbe4eb-4bbd-bb73-bae9-8fd32c380882"
        },
        "medicationReference": {
          "reference": "Medication/513d28b9-9ba7-a7a6-a32a-f912388f02f6"
        }
      },
      "request": {
        "method": "PUT",
        "url": "MedicationStatement/ae6fc8cb-f689-b41c-fbd1-9ddd954bdfb9"
      }
    },
    {
      "fullUrl": "urn:uuid:513d28b9-9ba7-a7a6-a32a-f912388f02f6",
      "resource": {
        "resourceType": "Medication",
        "id": "513d28b9-9ba7-a7a6-a32a-f912388f02f6",
        "code": {
          "coding": [
            {
              "code": "197806",
              "system": "http://www.nlm.nih.gov/research/umls/rxnorm",
              "display": "IBUPROFEN"
            },
            {
              "code": "10519",
              "system": "2.16.840.1.113883.6.253"
            },
            {
              "code": "66100020000330",
              "system": "2.16.840.1.113883.6.68"
            },
            {
              "code": "665",
              "system": "1.2.840.113619.21.100.12.998"
            },
            {
              "code": "6529",
              "system": "1.2.840.113619.21.100.12.999"
            },
            {
              "code": "00904585440",
              "system": "2.16.840.1.113883.6.69"
            }
          ],
          "text": "(IBUPROFEN) 600 MG TABS"
        }
      },
      "request": {
        "method": "PUT",
        "url": "Medication/513d28b9-9ba7-a7a6-a32a-f912388f02f6"
      }
    },
    {
      "fullUrl": "urn:uuid:cc5c3147-05d6-083f-00ef-b7cdfcaf917f",
      "resource": {
        "resourceType": "MedicationRequest",
        "id": "cc5c3147-05d6-083f-00ef-b7cdfcaf917f",
        "identifier": [
          {
            "system": "urn:oid:1.2.840.113619.21.1.139060385287897942.9",
            "value": "MedicationOrder/1874154899871880",
            "assigner": {
              "display": " API Resource Identifier"
            }
          },
          {
            "system": "UNK",
            "value": "B491822AC1AE4FB8A5D1C7A4699AE9E5",
            "assigner": {
              "display": "Unknown"
            }
          }
        ],
        "status": "completed",
        "intent": "order",
        "authoredOn": "2019-05-22T14:36:52.887-05:00",
        "dispenseRequest": {
          "numberOfRepeatsAllowed": 1
        },
        "subject": {
          "reference": "Patient/72bbe4eb-4bbd-bb73-bae9-8fd32c380882"
        },
        "medicationReference": {
          "reference": "Medication/513d28b9-9ba7-a7a6-a32a-f912388f02f6"
        },
        "requester": {
          "reference": "Practitioner/c90036b1-ce03-a7cc-8c49-54f5dc7f1aab"
        }
      },
      "request": {
        "method": "PUT",
        "url": "MedicationRequest/cc5c3147-05d6-083f-00ef-b7cdfcaf917f"
      }
    },
    {
      "fullUrl": "urn:uuid:7f72c170-d6b0-6a3c-b08e-485914c2f828",
      "resource": {
        "resourceType": "MedicationStatement",
        "id": "7f72c170-d6b0-6a3c-b08e-485914c2f828",
        "identifier": [
          {
            "system": "urn:oid:1.2.840.113619.21.1.139060385287897942.9",
            "value": "MedicationStatement/1874154603845270",
            "assigner": {
              "display": " API Resource Identifier"
            }
          }
        ],
        "status": "active",
        "effectivePeriod": {
          "start": "2019-05-22T00:00:00-05:00"
        },
        "subject": {
          "reference": "Patient/72bbe4eb-4bbd-bb73-bae9-8fd32c380882"
        },
        "medicationReference": {
          "reference": "Medication/7406945d-35e4-12c7-41ba-629318cef099"
        }
      },
      "request": {
        "method": "PUT",
        "url": "MedicationStatement/7f72c170-d6b0-6a3c-b08e-485914c2f828"
      }
    },
    {
      "fullUrl": "urn:uuid:7406945d-35e4-12c7-41ba-629318cef099",
      "resource": {
        "resourceType": "Medication",
        "id": "7406945d-35e4-12c7-41ba-629318cef099",
        "code": {
          "coding": [
            {
              "code": "200329",
              "system": "http://www.nlm.nih.gov/research/umls/rxnorm",
              "display": "OMEPRAZOLE"
            },
            {
              "code": "64693",
              "system": "2.16.840.1.113883.6.253"
            },
            {
              "code": "49270060006530",
              "system": "2.16.840.1.113883.6.68"
            },
            {
              "code": "2458",
              "system": "1.2.840.113619.21.100.12.998"
            },
            {
              "code": "21362",
              "system": "1.2.840.113619.21.100.12.999"
            },
            {
              "code": "00781223401",
              "system": "2.16.840.1.113883.6.69"
            }
          ],
          "text": "(OMEPRAZOLE) 40 MG CPDR"
        }
      },
      "request": {
        "method": "PUT",
        "url": "Medication/7406945d-35e4-12c7-41ba-629318cef099"
      }
    },
    {
      "fullUrl": "urn:uuid:abc55d8b-ccea-f124-c0e5-b9a4f9769d21",
      "resource": {
        "resourceType": "MedicationRequest",
        "id": "abc55d8b-ccea-f124-c0e5-b9a4f9769d21",
        "identifier": [
          {
            "system": "urn:oid:1.2.840.113619.21.1.139060385287897942.9",
            "value": "MedicationOrder/1874154899871810",
            "assigner": {
              "display": " API Resource Identifier"
            }
          },
          {
            "system": "UNK",
            "value": "B81ABEE6828E457F949E295723FA34E1",
            "assigner": {
              "display": "Unknown"
            }
          }
        ],
        "status": "completed",
        "intent": "order",
        "authoredOn": "2019-05-22T14:36:52.290-05:00",
        "dispenseRequest": {
          "numberOfRepeatsAllowed": 5
        },
        "subject": {
          "reference": "Patient/72bbe4eb-4bbd-bb73-bae9-8fd32c380882"
        },
        "medicationReference": {
          "reference": "Medication/7406945d-35e4-12c7-41ba-629318cef099"
        },
        "requester": {
          "reference": "Practitioner/c90036b1-ce03-a7cc-8c49-54f5dc7f1aab"
        }
      },
      "request": {
        "method": "PUT",
        "url": "MedicationRequest/abc55d8b-ccea-f124-c0e5-b9a4f9769d21"
      }
    },
    {
      "fullUrl": "urn:uuid:c31514af-f0d4-4df4-72c5-26cf9dd80b26",
      "resource": {
        "resourceType": "MedicationStatement",
        "id": "c31514af-f0d4-4df4-72c5-26cf9dd80b26",
        "identifier": [
          {
            "system": "urn:oid:1.2.840.113619.21.1.139060385287897942.9",
            "value": "MedicationStatement/1814177715440570",
            "assigner": {
              "display": " API Resource Identifier"
            }
          }
        ],
        "status": "active",
        "effectivePeriod": {
          "start": "2015-08-29T00:00:00-05:00"
        },
        "subject": {
          "reference": "Patient/72bbe4eb-4bbd-bb73-bae9-8fd32c380882"
        },
        "medicationReference": {
          "reference": "Medication/193798e4-28be-a5d5-8afc-13edfe1a831f"
        }
      },
      "request": {
        "method": "PUT",
        "url": "MedicationStatement/c31514af-f0d4-4df4-72c5-26cf9dd80b26"
      }
    },
    {
      "fullUrl": "urn:uuid:193798e4-28be-a5d5-8afc-13edfe1a831f",
      "resource": {
        "resourceType": "Medication",
        "id": "193798e4-28be-a5d5-8afc-13edfe1a831f",
        "code": {
          "coding": [
            {
              "code": "1014678",
              "system": "http://www.nlm.nih.gov/research/umls/rxnorm",
              "display": "CETIRIZINE HCL"
            },
            {
              "code": "25942",
              "system": "2.16.840.1.113883.6.253"
            },
            {
              "code": "41550020100320",
              "system": "2.16.840.1.113883.6.68"
            },
            {
              "code": "6277",
              "system": "1.2.840.113619.21.100.12.998"
            },
            {
              "code": "13517",
              "system": "1.2.840.113619.21.100.12.999"
            },
            {
              "code": "00378363701",
              "system": "2.16.840.1.113883.6.69"
            }
          ],
          "text": "(CETIRIZINE HCL) 10 MG TABS"
        }
      },
      "request": {
        "method": "PUT",
        "url": "Medication/193798e4-28be-a5d5-8afc-13edfe1a831f"
      }
    },
    {
      "fullUrl": "urn:uuid:a585c065-4768-5abf-c24f-128d41f0790b",
      "resource": {
        "resourceType": "MedicationRequest",
        "id": "a585c065-4768-5abf-c24f-128d41f0790b",
        "identifier": [
          {
            "system": "urn:oid:1.2.840.113619.21.1.139060385287897942.9",
            "value": "MedicationOrder/1840098533523710",
            "assigner": {
              "display": " API Resource Identifier"
            }
          }
        ],
        "status": "completed",
        "intent": "order",
        "authoredOn": "2018-06-02T20:02:11.390-05:00",
        "dispenseRequest": {
          "numberOfRepeatsAllowed": 1
        },
        "subject": {
          "reference": "Patient/72bbe4eb-4bbd-bb73-bae9-8fd32c380882"
        },
        "medicationReference": {
          "reference": "Medication/193798e4-28be-a5d5-8afc-13edfe1a831f"
        },
        "requester": {
          "reference": "Practitioner/0c14db5b-0a6f-3d2f-c378-5498b098be1b"
        }
      },
      "request": {
        "method": "PUT",
        "url": "MedicationRequest/a585c065-4768-5abf-c24f-128d41f0790b"
      }
    },
    {
      "fullUrl": "urn:uuid:e78c0eca-1db7-9c3a-9135-704700d20d94",
      "resource": {
        "resourceType": "MedicationStatement",
        "id": "e78c0eca-1db7-9c3a-9135-704700d20d94",
        "identifier": [
          {
            "system": "urn:oid:1.2.840.113619.21.1.139060385287897942.9",
            "value": "MedicationStatement/1812530944856550",
            "assigner": {
              "display": " API Resource Identifier"
            }
          }
        ],
        "status": "active",
        "effectivePeriod": {
          "start": "2017-06-08T00:00:00-05:00"
        },
        "subject": {
          "reference": "Patient/72bbe4eb-4bbd-bb73-bae9-8fd32c380882"
        },
        "medicationReference": {
          "reference": "Medication/84a7d138-9b41-395f-42c8-1843696a3892"
        }
      },
      "request": {
        "method": "PUT",
        "url": "MedicationStatement/e78c0eca-1db7-9c3a-9135-704700d20d94"
      }
    },
    {
      "fullUrl": "urn:uuid:84a7d138-9b41-395f-42c8-1843696a3892",
      "resource": {
        "resourceType": "Medication",
        "id": "84a7d138-9b41-395f-42c8-1843696a3892",
        "code": {
          "coding": [
            {
              "code": "1797933",
              "system": "http://www.nlm.nih.gov/research/umls/rxnorm",
              "display": "FLUTICASONE PROPIONATE"
            },
            {
              "code": "186173",
              "system": "2.16.840.1.113883.6.253"
            },
            {
              "code": "42200032301810",
              "system": "2.16.840.1.113883.6.68"
            },
            {
              "code": "24098",
              "system": "1.2.840.113619.21.100.12.998"
            },
            {
              "code": "88736",
              "system": "1.2.840.113619.21.100.12.999"
            },
            {
              "code": "00135057602",
              "system": "2.16.840.1.113883.6.69"
            }
          ],
          "text": "FLONASE ALLERGY RELIEF (FLUTICASONE PROPIONATE) 50 MCG/ACT SUSP"
        }
      },
      "request": {
        "method": "PUT",
        "url": "Medication/84a7d138-9b41-395f-42c8-1843696a3892"
      }
    },
    {
      "fullUrl": "urn:uuid:ae7b49a4-2aeb-6a42-85e4-a3d6c4bf6914",
      "resource": {
        "resourceType": "MedicationRequest",
        "id": "ae7b49a4-2aeb-6a42-85e4-a3d6c4bf6914",
        "identifier": [
          {
            "system": "urn:oid:1.2.840.113619.21.1.139060385287897942.9",
            "value": "MedicationOrder/1812530944856580",
            "assigner": {
              "display": " API Resource Identifier"
            }
          }
        ],
        "status": "completed",
        "intent": "order",
        "authoredOn": "2018-06-01T20:00:57.520-05:00",
        "dispenseRequest": {
          "numberOfRepeatsAllowed": 2
        },
        "subject": {
          "reference": "Patient/72bbe4eb-4bbd-bb73-bae9-8fd32c380882"
        },
        "medicationReference": {
          "reference": "Medication/84a7d138-9b41-395f-42c8-1843696a3892"
        },
        "requester": {
          "reference": "Practitioner/8c2010ec-b06f-d34b-8290-658965bd0fc9"
        }
      },
      "request": {
        "method": "PUT",
        "url": "MedicationRequest/ae7b49a4-2aeb-6a42-85e4-a3d6c4bf6914"
      }
    },
    {
      "fullUrl": "urn:uuid:8c2010ec-b06f-d34b-8290-658965bd0fc9",
      "resource": {
        "resourceType": "Practitioner",
        "id": "8c2010ec-b06f-d34b-8290-658965bd0fc9",
        "meta": {
          "profile": [
            "http://hl7.org/fhir/us/core/StructureDefinition/us-core-practitioner"
          ]
        },
        "identifier": [
          {
            "system": "urn:oid:1.2.840.113619.21.1.139060385287897942.2.2",
            "value": "1776872906746160",
            "assigner": {
              "display": " Providers by PVID"
            }
          },
          {
            "system": "urn:oid:1.2.840.113619.21.1.139060385287897942.2.1",
            "value": "1337",
            "assigner": {
              "display": " Providers by DoctorFacility"
            }
          },
          {
            "system": "http://hl7.org/fhir/sid/us-npi",
            "value": "1740641737",
            "assigner": {
              "display": "US National Provider Identifiers"
            }
          },
          {
            "system": "urn:oid:2.16.840.1.113883.4.2",
            "value": "363197647",
            "assigner": {
              "display": "Federal Tax Identifier"
            }
          }
        ],
        "name": [
          {
            "family": "Robertson-Shelby",
            "given": [
              "Emily"
            ]
          }
        ],
        "address": [
          {
            "line": [
              "Komed Holman",
              "4259 S Berkeley"
            ],
            "city": "Chicago",
            "state": "IL",
            "postalCode": "60653"
          }
        ],
        "telecom": [
          {
            "system": "phone",
            "value": "7732687600",
            "use": "work"
          },
          {
            "system": "phone",
            "value": "7732689088",
            "use": "mobile"
          }
        ]
      },
      "request": {
        "method": "PUT",
        "url": "Practitioner/8c2010ec-b06f-d34b-8290-658965bd0fc9"
      }
    },
    {
      "fullUrl": "urn:uuid:b53b2499-2514-4093-1865-cc4e421adec7",
      "resource": {
        "resourceType": "MedicationRequest",
        "id": "b53b2499-2514-4093-1865-cc4e421adec7",
        "identifier": [
          {
            "system": "urn:oid:1.2.840.113619.21.1.139060385287897942.9",
            "value": "MedicationOrder/1840098533523670",
            "assigner": {
              "display": " API Resource Identifier"
            }
          }
        ],
        "status": "completed",
        "intent": "order",
        "authoredOn": "2018-06-02T20:02:11.390-05:00",
        "dispenseRequest": {
          "numberOfRepeatsAllowed": 6
        },
        "subject": {
          "reference": "Patient/72bbe4eb-4bbd-bb73-bae9-8fd32c380882"
        },
        "medicationReference": {
          "reference": "Medication/84a7d138-9b41-395f-42c8-1843696a3892"
        },
        "requester": {
          "reference": "Practitioner/0c14db5b-0a6f-3d2f-c378-5498b098be1b"
        }
      },
      "request": {
        "method": "PUT",
        "url": "MedicationRequest/b53b2499-2514-4093-1865-cc4e421adec7"
      }
    },
    {
      "fullUrl": "urn:uuid:0ec2b5ae-535b-4c75-ecd6-12669d7514ed",
      "resource": {
        "resourceType": "MedicationRequest",
        "id": "0ec2b5ae-535b-4c75-ecd6-12669d7514ed",
        "identifier": [
          {
            "system": "urn:oid:1.2.840.113619.21.1.139060385287897942.9",
            "value": "MedicationOrder/1898156788027910",
            "assigner": {
              "display": " API Resource Identifier"
            }
          },
          {
            "system": "UNK",
            "value": "8D5D9EF4F81C45F9B4FC412B70EF24DB",
            "assigner": {
              "display": "Unknown"
            }
          }
        ],
        "status": "completed",
        "intent": "order",
        "authoredOn": "2020-02-24T09:49:04.807-06:00",
        "dispenseRequest": {
          "numberOfRepeatsAllowed": 6
        },
        "subject": {
          "reference": "Patient/72bbe4eb-4bbd-bb73-bae9-8fd32c380882"
        },
        "medicationReference": {
          "reference": "Medication/84a7d138-9b41-395f-42c8-1843696a3892"
        },
        "requester": {
          "reference": "Practitioner/0c14db5b-0a6f-3d2f-c378-5498b098be1b"
        }
      },
      "request": {
        "method": "PUT",
        "url": "MedicationRequest/0ec2b5ae-535b-4c75-ecd6-12669d7514ed"
      }
    },
    {
      "fullUrl": "urn:uuid:2c3d776e-8e2a-f9de-1c20-57a83737e013",
      "resource": {
        "resourceType": "MedicationStatement",
        "id": "2c3d776e-8e2a-f9de-1c20-57a83737e013",
        "identifier": [
          {
            "system": "urn:oid:1.2.840.113619.21.1.139060385287897942.9",
            "value": "MedicationStatement/1806491493045260",
            "assigner": {
              "display": " API Resource Identifier"
            }
          }
        ],
        "status": "active",
        "effectivePeriod": {
          "start": "2015-08-29T00:00:00-05:00"
        },
        "subject": {
          "reference": "Patient/72bbe4eb-4bbd-bb73-bae9-8fd32c380882"
        },
        "medicationReference": {
          "reference": "Medication/d5a38fca-f9c5-0fe2-9b7f-f0b4803fbdf7"
        }
      },
      "request": {
        "method": "PUT",
        "url": "MedicationStatement/2c3d776e-8e2a-f9de-1c20-57a83737e013"
      }
    },
    {
      "fullUrl": "urn:uuid:d5a38fca-f9c5-0fe2-9b7f-f0b4803fbdf7",
      "resource": {
        "resourceType": "Medication",
        "id": "d5a38fca-f9c5-0fe2-9b7f-f0b4803fbdf7",
        "code": {
          "coding": [
            {
              "system": "1.2.840.113619.21.1.139060385287897942.9",
              "display": "QVAR 80 MCG/ACT INHALATION AEROSOL SOLUTION"
            }
          ],
          "text": "QVAR 80 MCG/ACT INHALATION AEROSOL SOLUTION"
        }
      },
      "request": {
        "method": "PUT",
        "url": "Medication/d5a38fca-f9c5-0fe2-9b7f-f0b4803fbdf7"
      }
    },
    {
      "fullUrl": "urn:uuid:20ac088b-2db2-2d07-54ea-db7c5e29976c",
      "resource": {
        "resourceType": "MedicationRequest",
        "id": "20ac088b-2db2-2d07-54ea-db7c5e29976c",
        "identifier": [
          {
            "system": "urn:oid:1.2.840.113619.21.1.139060385287897942.9",
            "value": "MedicationOrder/1898156788027850",
            "assigner": {
              "display": " API Resource Identifier"
            }
          },
          {
            "system": "UNK",
            "value": "D22CB0B657EB42ABB1E63C315ACE2648",
            "assigner": {
              "display": "Unknown"
            }
          }
        ],
        "status": "completed",
        "intent": "order",
        "authoredOn": "2020-02-24T09:48:43.137-06:00",
        "dispenseRequest": {
          "numberOfRepeatsAllowed": 6
        },
        "subject": {
          "reference": "Patient/72bbe4eb-4bbd-bb73-bae9-8fd32c380882"
        },
        "medicationReference": {
          "reference": "Medication/d5a38fca-f9c5-0fe2-9b7f-f0b4803fbdf7"
        },
        "requester": {
          "reference": "Practitioner/0c14db5b-0a6f-3d2f-c378-5498b098be1b"
        }
      },
      "request": {
        "method": "PUT",
        "url": "MedicationRequest/20ac088b-2db2-2d07-54ea-db7c5e29976c"
      }
    },
    {
      "fullUrl": "urn:uuid:f48101ba-eb18-da9e-f2dc-83d034602bed",
      "resource": {
        "resourceType": "MedicationStatement",
        "id": "f48101ba-eb18-da9e-f2dc-83d034602bed",
        "identifier": [
          {
            "system": "urn:oid:1.2.840.113619.21.1.139060385287897942.9",
            "value": "MedicationStatement/1791282622168080",
            "assigner": {
              "display": " API Resource Identifier"
            }
          }
        ],
        "status": "active",
        "effectivePeriod": {
          "start": "2016-10-05T00:00:00-05:00"
        },
        "subject": {
          "reference": "Patient/72bbe4eb-4bbd-bb73-bae9-8fd32c380882"
        },
        "medicationReference": {
          "reference": "Medication/67979ea5-3af9-c248-4735-a2b10bea4b81"
        }
      },
      "request": {
        "method": "PUT",
        "url": "MedicationStatement/f48101ba-eb18-da9e-f2dc-83d034602bed"
      }
    },
    {
      "fullUrl": "urn:uuid:67979ea5-3af9-c248-4735-a2b10bea4b81",
      "resource": {
        "resourceType": "Medication",
        "id": "67979ea5-3af9-c248-4735-a2b10bea4b81",
        "code": {
          "coding": [
            {
              "code": "746763",
              "system": "http://www.nlm.nih.gov/research/umls/rxnorm",
              "display": "ALBUTEROL SULFATE"
            },
            {
              "code": "45685",
              "system": "2.16.840.1.113883.6.253"
            },
            {
              "code": "44201010103410",
              "system": "2.16.840.1.113883.6.68"
            },
            {
              "code": "2486",
              "system": "1.2.840.113619.21.100.12.998"
            },
            {
              "code": "9517",
              "system": "1.2.840.113619.21.100.12.999"
            },
            {
              "code": "00085113204",
              "system": "2.16.840.1.113883.6.69"
            }
          ],
          "text": "PROVENTIL HFA (ALBUTEROL SULFATE) 108 (90 Base) MCG/ACT AERS"
        }
      },
      "request": {
        "method": "PUT",
        "url": "Medication/67979ea5-3af9-c248-4735-a2b10bea4b81"
      }
    },
    {
      "fullUrl": "urn:uuid:4236c257-6878-df52-33ee-13ff17bc932e",
      "resource": {
        "resourceType": "MedicationRequest",
        "id": "4236c257-6878-df52-33ee-13ff17bc932e",
        "identifier": [
          {
            "system": "urn:oid:1.2.840.113619.21.1.139060385287897942.9",
            "value": "MedicationOrder/1898156788027890",
            "assigner": {
              "display": " API Resource Identifier"
            }
          },
          {
            "system": "UNK",
            "value": "F1F499DEEBDD4EED8A0A48A0419BB3EE",
            "assigner": {
              "display": "Unknown"
            }
          }
        ],
        "status": "completed",
        "intent": "order",
        "authoredOn": "2020-02-24T09:49:05.833-06:00",
        "dispenseRequest": {
          "numberOfRepeatsAllowed": 6
        },
        "subject": {
          "reference": "Patient/72bbe4eb-4bbd-bb73-bae9-8fd32c380882"
        },
        "medicationReference": {
          "reference": "Medication/67979ea5-3af9-c248-4735-a2b10bea4b81"
        },
        "requester": {
          "reference": "Practitioner/0c14db5b-0a6f-3d2f-c378-5498b098be1b"
        }
      },
      "request": {
        "method": "PUT",
        "url": "MedicationRequest/4236c257-6878-df52-33ee-13ff17bc932e"
      }
    },
    {
      "fullUrl": "urn:uuid:a3a0e64a-7310-7e3a-a095-9ddfe16f0f83",
      "resource": {
        "resourceType": "Condition",
        "id": "a3a0e64a-7310-7e3a-a095-9ddfe16f0f83",
        "identifier": [
          {
            "system": "urn:ietf:rfc:3986",
            "value": "urn:oid:1.2.840.113619.21.1.139060385287897942.10.1591243499819.155862"
          }
        ],
        "category": [
          {
            "coding": [
              {
                "code": "problem-item-list",
                "display": "Problem List Item",
                "system": "http://hl7.org/fhir/us/core/ValueSet/us-core-condition-category"
              }
            ]
          }
        ],
        "code": {
          "coding": [
            {
              "code": "55607006",
              "system": "http://snomed.info/sct",
              "display": "Problem"
            }
          ]
        },
        "subject": {
          "reference": "Patient/72bbe4eb-4bbd-bb73-bae9-8fd32c380882"
        }
      },
      "request": {
        "method": "PUT",
        "url": "Condition/a3a0e64a-7310-7e3a-a095-9ddfe16f0f83"
      }
    },
    {
      "fullUrl": "urn:uuid:8e130520-9538-3a4d-48f9-ec451b953905",
      "resource": {
        "resourceType": "DiagnosticReport",
        "id": "8e130520-9538-3a4d-48f9-ec451b953905",
        "identifier": [
          {
            "system": "urn:oid:1.2.840.113619.21.1.139060385287897942.9",
            "value": "Observation/1905106080112600",
            "assigner": {
              "display": "31913-41995-12761042 API Resource Identifier"
            }
          }
        ],
        "status": "final",
        "code": {
          "coding": [
            {
              "code": "30954-2",
              "system": "http://loinc.org",
              "display": "RESULTS"
            }
          ]
        },
        "subject": {
          "reference": "Patient/72bbe4eb-4bbd-bb73-bae9-8fd32c380882"
        },
        "result": [
          {
            "reference": "Observation/9cd4a526-aac2-b293-4db8-95717141fb17"
          },
          {
            "reference": "Observation/80d5d9af-f11e-a5e5-fed6-b8b2a6045fb2"
          },
          {
            "reference": "Observation/20dcb427-81c1-41a9-2c4e-9156fb9c204d"
          }
        ]
      },
      "request": {
        "method": "PUT",
        "url": "DiagnosticReport/8e130520-9538-3a4d-48f9-ec451b953905"
      }
    },
    {
      "fullUrl": "urn:uuid:9cd4a526-aac2-b293-4db8-95717141fb17",
      "resource": {
        "resourceType": "Observation",
        "id": "9cd4a526-aac2-b293-4db8-95717141fb17",
        "meta": {
          "profile": [
            "http://hl7.org/fhir/us/ecr/StructureDefinition/us-ph-lab-result-observation"
          ]
        },
        "identifier": [
          {
            "system": "urn:oid:1.2.840.113619.21.1.139060385287897942.9",
            "value": "Observation/1905106080112600",
            "assigner": {
              "display": "31913-41995-12761042 API Resource Identifier"
            }
          }
        ],
        "category": [
          {
            "coding": [
              {
                "system": "http://terminology.hl7.org/CodeSystem/observation-category",
                "code": "laboratory"
              }
            ]
          }
        ],
        "status": "final",
        "code": {
          "coding": [
            {
              "code": "24111-7",
              "system": "http://loinc.org",
              "display": "Neisseria gonorrhoeae DNA [Presence] in Unspecified specimen by NAA with probe detection"
            },
            {
              "code": "2719",
              "system": "1.2.840.113619.21.100.12.1053.139060385287897942",
              "display": "GC DNA PROBE"
            }
          ],
          "text": "Neisseria gonorrhoeae DNA probe"
        },
        "effectiveDateTime": "2020-05-13T10:24:00-05:00",
        "valueString": "Negative",
        "referenceRange": [
          {
            "text": "Negative"
          }
        ],
        "subject": {
          "reference": "Patient/72bbe4eb-4bbd-bb73-bae9-8fd32c380882"
        }
      },
      "request": {
        "method": "PUT",
        "url": "Observation/9cd4a526-aac2-b293-4db8-95717141fb17"
      }
    },
    {
      "fullUrl": "urn:uuid:80d5d9af-f11e-a5e5-fed6-b8b2a6045fb2",
      "resource": {
        "resourceType": "Observation",
        "id": "80d5d9af-f11e-a5e5-fed6-b8b2a6045fb2",
        "meta": {
          "profile": [
            "http://hl7.org/fhir/us/ecr/StructureDefinition/us-ph-lab-result-observation"
          ]
        },
        "identifier": [
          {
            "system": "urn:oid:1.2.840.113619.21.1.139060385287897942.9",
            "value": "Observation/1905106080112580",
            "assigner": {
              "display": "31913-41995-12761042 API Resource Identifier"
            }
          }
        ],
        "category": [
          {
            "coding": [
              {
                "system": "http://terminology.hl7.org/CodeSystem/observation-category",
                "code": "laboratory"
              }
            ]
          }
        ],
        "status": "final",
        "code": {
          "coding": [
            {
              "code": "21613-5",
              "system": "http://loinc.org",
              "display": "Chlamydia trachomatis DNA [Presence] in Unspecified specimen by NAA with probe detection"
            },
            {
              "code": "14722",
              "system": "1.2.840.113619.21.100.12.1053.139060385287897942",
              "display": "CHLAMYD DNA"
            }
          ],
          "text": "chlamydia DNA probe"
        },
        "effectiveDateTime": "2020-05-13T10:24:00-05:00",
        "valueString": "Positive",
        "referenceRange": [
          {
            "text": "Negative"
          }
        ],
        "interpretation": [
          {
            "coding": [
              {
                "code": "A",
                "system": "http://terminology.hl7.org/CodeSystem/v3-ObservationInterpretation",
                "display": "Abnormal"
              }
            ],
            "text": "Abnormal"
          }
        ],
        "subject": {
          "reference": "Patient/72bbe4eb-4bbd-bb73-bae9-8fd32c380882"
        }
      },
      "request": {
        "method": "PUT",
        "url": "Observation/80d5d9af-f11e-a5e5-fed6-b8b2a6045fb2"
      }
    },
    {
      "fullUrl": "urn:uuid:20dcb427-81c1-41a9-2c4e-9156fb9c204d",
      "resource": {
        "resourceType": "Observation",
        "id": "20dcb427-81c1-41a9-2c4e-9156fb9c204d",
        "meta": {
          "profile": [
            "http://hl7.org/fhir/us/ecr/StructureDefinition/us-ph-lab-result-observation"
          ]
        },
        "identifier": [
          {
            "system": "urn:oid:1.2.840.113619.21.1.139060385287897942.9",
            "value": "Observation/1905057451634940",
            "assigner": {
              "display": "31913-41995-12761042 API Resource Identifier"
            }
          }
        ],
        "category": [
          {
            "coding": [
              {
                "system": "http://terminology.hl7.org/CodeSystem/observation-category",
                "code": "laboratory"
              }
            ]
          }
        ],
        "status": "final",
        "code": {
          "coding": [
            {
              "code": "5291-0",
              "system": "http://loinc.org",
              "display": "Reagin Ab [Units/volume] in Serum by VDRL"
            },
            {
              "code": "308",
              "system": "1.2.840.113619.21.100.12.1053.139060385287897942",
              "display": "RPR"
            }
          ],
          "text": "rapid plasma reagin antibody, serum"
        },
        "effectiveDateTime": "2020-05-13T10:24:00-05:00",
        "valueString": "Non Reactive",
        "referenceRange": [
          {
            "text": "Non Reactive"
          }
        ],
        "subject": {
          "reference": "Patient/72bbe4eb-4bbd-bb73-bae9-8fd32c380882"
        }
      },
      "request": {
        "method": "PUT",
        "url": "Observation/20dcb427-81c1-41a9-2c4e-9156fb9c204d"
      }
    },
    {
      "fullUrl": "urn:uuid:777817a3-745d-db66-1ec1-cac6930bda6e",
      "resource": {
        "resourceType": "Observation",
        "id": "777817a3-745d-db66-1ec1-cac6930bda6e",
        "meta": {
          "profile": [
            "http://hl7.org/fhir/StructureDefinition/Observation"
          ]
        },
        "identifier": [
          {
            "system": "urn:oid:1.2.840.113619.21.1.139060385287897942.9",
            "value": "Observation/1906191903360970",
            "assigner": {
              "display": "31913-41995-12761042 API Resource Identifier"
            }
          }
        ],
        "category": [
          {
            "coding": [
              {
                "system": "http://terminology.hl7.org/CodeSystem/observation-category",
                "code": "social-history"
              }
            ]
          }
        ],
        "status": "final",
        "code": {
          "coding": [
            {
              "code": "1056",
              "system": "1.2.840.113619.21.100.12.1053.139060385287897942",
              "display": "SOCIAL HX"
            },
            {
              "system": "1.2.840.113619.21.100.12.1053.139060385287897942"
            }
          ],
          "text": "social history E&M"
        },
        "effectiveDateTime": "2020-05-19T11:14:16-05:00",
        "valueString": "Married. Not homeless. Born in USA. Birth City: Chicago. Birth State: IL. YesLives with AuntEmployed full-time. Fin. accountant. Highest education level: bachelor's degree. Sex at birth: female. Gender identity: Female. Gender of partner(s): male. Sexually Active: Yes. ",
        "subject": {
          "reference": "Patient/72bbe4eb-4bbd-bb73-bae9-8fd32c380882"
        }
      },
      "request": {
        "method": "PUT",
        "url": "Observation/777817a3-745d-db66-1ec1-cac6930bda6e"
      }
    },
    {
      "fullUrl": "urn:uuid:33d17621-f5c0-1f30-4ce2-5b6c81d03c66",
      "resource": {
        "resourceType": "Observation",
        "id": "33d17621-f5c0-1f30-4ce2-5b6c81d03c66",
        "meta": {
          "profile": [
            "http://hl7.org/fhir/StructureDefinition/Observation"
          ]
        },
        "identifier": [
          {
            "system": "urn:oid:1.2.840.113619.21.1.139060385287897942.9",
            "value": "Observation/1906191903360950",
            "assigner": {
              "display": "31913-41995-12761042 API Resource Identifier"
            }
          }
        ],
        "category": [
          {
            "coding": [
              {
                "system": "http://terminology.hl7.org/CodeSystem/observation-category",
                "code": "social-history"
              }
            ]
          }
        ],
        "status": "final",
        "code": {
          "coding": [
            {
              "code": "4768",
              "system": "1.2.840.113619.21.100.12.1053.139060385287897942",
              "display": "SH REVIEWED"
            },
            {
              "system": "1.2.840.113619.21.100.12.1053.139060385287897942"
            }
          ],
          "text": "social history reviewed E&M"
        },
        "effectiveDateTime": "2020-05-19T11:14:16-05:00",
        "valueString": "reviewed today",
        "subject": {
          "reference": "Patient/72bbe4eb-4bbd-bb73-bae9-8fd32c380882"
        }
      },
      "request": {
        "method": "PUT",
        "url": "Observation/33d17621-f5c0-1f30-4ce2-5b6c81d03c66"
      }
    },
    {
      "fullUrl": "urn:uuid:646ee0ee-d7b1-6850-2ff5-3056bd4239fc",
      "resource": {
        "resourceType": "Observation",
        "id": "646ee0ee-d7b1-6850-2ff5-3056bd4239fc",
        "meta": {
          "profile": [
            "http://hl7.org/fhir/StructureDefinition/Observation"
          ]
        },
        "identifier": [
          {
            "system": "urn:oid:1.2.840.113619.21.1.139060385287897942.9",
            "value": "Observation/1905499279354510",
            "assigner": {
              "display": "31913-41995-12761042 API Resource Identifier"
            }
          }
        ],
        "category": [
          {
            "coding": [
              {
                "system": "http://terminology.hl7.org/CodeSystem/observation-category",
                "code": "social-history"
              }
            ]
          }
        ],
        "status": "final",
        "code": {
          "coding": [
            {
              "code": "360265",
              "system": "1.2.840.113619.21.100.12.1053.139060385287897942",
              "display": "TIME OF CALL"
            },
            {
              "system": "1.2.840.113619.21.100.12.1053.139060385287897942"
            }
          ],
          "text": "time of call"
        },
        "effectiveDateTime": "2020-05-19T09:20:52-05:00",
        "valueString": "05/19/2020 9:21 AM",
        "subject": {
          "reference": "Patient/72bbe4eb-4bbd-bb73-bae9-8fd32c380882"
        }
      },
      "request": {
        "method": "PUT",
        "url": "Observation/646ee0ee-d7b1-6850-2ff5-3056bd4239fc"
      }
    },
    {
      "fullUrl": "urn:uuid:a5e1c10f-1ed5-422b-499c-db75576bae31",
      "resource": {
        "resourceType": "Observation",
        "id": "a5e1c10f-1ed5-422b-499c-db75576bae31",
        "meta": {
          "profile": [
            "http://hl7.org/fhir/StructureDefinition/Observation"
          ]
        },
        "identifier": [
          {
            "system": "urn:oid:1.2.840.113619.21.1.139060385287897942.9",
            "value": "Observation/1904984753512640",
            "assigner": {
              "display": "31913-41995-12761042 API Resource Identifier"
            }
          }
        ],
        "category": [
          {
            "coding": [
              {
                "system": "http://terminology.hl7.org/CodeSystem/observation-category",
                "code": "social-history"
              }
            ]
          }
        ],
        "status": "final",
        "code": {
          "coding": [
            {
              "code": "1056",
              "system": "1.2.840.113619.21.100.12.1053.139060385287897942",
              "display": "SOCIAL HX"
            },
            {
              "system": "1.2.840.113619.21.100.12.1053.139060385287897942"
            }
          ],
          "text": "social history E&M"
        },
        "effectiveDateTime": "2020-05-13T09:41:20-05:00",
        "valueString": "Married. Not homeless. Born in USA. Birth City: Chicago. Birth State: IL. YesLives with AuntEmployed full-time. Fin. accountant. Highest education level: bachelor's degree. Sex at birth: female. Gender identity: Female. Gender of partner(s): male. Sexually Active: Yes. ",
        "subject": {
          "reference": "Patient/72bbe4eb-4bbd-bb73-bae9-8fd32c380882"
        }
      },
      "request": {
        "method": "PUT",
        "url": "Observation/a5e1c10f-1ed5-422b-499c-db75576bae31"
      }
    },
    {
      "fullUrl": "urn:uuid:6b8faf70-ec5b-9eb2-bebc-58db15a54e50",
      "resource": {
        "resourceType": "Observation",
        "id": "6b8faf70-ec5b-9eb2-bebc-58db15a54e50",
        "meta": {
          "profile": [
            "http://hl7.org/fhir/StructureDefinition/Observation"
          ]
        },
        "identifier": [
          {
            "system": "urn:oid:1.2.840.113619.21.1.139060385287897942.9",
            "value": "Observation/1904984753512620",
            "assigner": {
              "display": "31913-41995-12761042 API Resource Identifier"
            }
          }
        ],
        "category": [
          {
            "coding": [
              {
                "system": "http://terminology.hl7.org/CodeSystem/observation-category",
                "code": "social-history"
              }
            ]
          }
        ],
        "status": "final",
        "code": {
          "coding": [
            {
              "code": "4768",
              "system": "1.2.840.113619.21.100.12.1053.139060385287897942",
              "display": "SH REVIEWED"
            },
            {
              "system": "1.2.840.113619.21.100.12.1053.139060385287897942"
            }
          ],
          "text": "social history reviewed E&M"
        },
        "effectiveDateTime": "2020-05-13T09:41:20-05:00",
        "valueString": "reviewed today",
        "subject": {
          "reference": "Patient/72bbe4eb-4bbd-bb73-bae9-8fd32c380882"
        }
      },
      "request": {
        "method": "PUT",
        "url": "Observation/6b8faf70-ec5b-9eb2-bebc-58db15a54e50"
      }
    },
    {
      "fullUrl": "urn:uuid:766204a9-3dd2-577f-f4eb-c4208024ba76",
      "resource": {
        "resourceType": "Observation",
        "id": "766204a9-3dd2-577f-f4eb-c4208024ba76",
        "meta": {
          "profile": [
            "http://hl7.org/fhir/StructureDefinition/Observation"
          ]
        },
        "identifier": [
          {
            "system": "urn:oid:1.2.840.113619.21.1.139060385287897942.9",
            "value": "Observation/1904982388386860",
            "assigner": {
              "display": "31913-41995-12761042 API Resource Identifier"
            }
          }
        ],
        "category": [
          {
            "coding": [
              {
                "system": "http://terminology.hl7.org/CodeSystem/observation-category",
                "code": "social-history"
              }
            ]
          }
        ],
        "status": "final",
        "code": {
          "coding": [
            {
              "code": "502889",
              "system": "1.2.840.113619.21.100.12.1053.139060385287897942",
              "display": "ASSMTHLTLTRY"
            },
            {
              "system": "1.2.840.113619.21.100.12.1053.139060385287897942"
            }
          ],
          "text": "assessment of health literacy (NCQA PCMH 2014 Standards, 3C10)"
        },
        "effectiveDateTime": "2020-05-13T09:41:20-05:00",
        "valueString": "Adequate",
        "subject": {
          "reference": "Patient/72bbe4eb-4bbd-bb73-bae9-8fd32c380882"
        }
      },
      "request": {
        "method": "PUT",
        "url": "Observation/766204a9-3dd2-577f-f4eb-c4208024ba76"
      }
    },
    {
      "fullUrl": "urn:uuid:f97e9e6f-eb2b-ea4e-0b80-7323621f13a0",
      "resource": {
        "resourceType": "Observation",
        "id": "f97e9e6f-eb2b-ea4e-0b80-7323621f13a0",
        "meta": {
          "profile": [
            "http://hl7.org/fhir/StructureDefinition/Observation"
          ]
        },
        "identifier": [
          {
            "system": "urn:oid:1.2.840.113619.21.1.139060385287897942.9",
            "value": "Observation/1904982363385930",
            "assigner": {
              "display": "31913-41995-12761042 API Resource Identifier"
            }
          }
        ],
        "category": [
          {
            "coding": [
              {
                "system": "http://terminology.hl7.org/CodeSystem/observation-category",
                "code": "social-history"
              }
            ]
          }
        ],
        "status": "final",
        "code": {
          "coding": [
            {
              "code": "229819007",
              "system": "http://snomed.info/sct",
              "display": "Tobacco use and exposure"
            },
            {
              "code": "2739",
              "system": "1.2.840.113619.21.100.12.1053.139060385287897942",
              "display": "PAS CIG SMOK"
            }
          ],
          "text": "passive cigarette smoke exposure"
        },
        "effectiveDateTime": "2020-05-13T09:41:20-05:00",
        "valueString": "No",
        "subject": {
          "reference": "Patient/72bbe4eb-4bbd-bb73-bae9-8fd32c380882"
        }
      },
      "request": {
        "method": "PUT",
        "url": "Observation/f97e9e6f-eb2b-ea4e-0b80-7323621f13a0"
      }
    },
    {
      "fullUrl": "urn:uuid:350857f6-1e2c-974b-c499-d83a99359ed1",
      "resource": {
        "resourceType": "Observation",
        "id": "350857f6-1e2c-974b-c499-d83a99359ed1",
        "meta": {
          "profile": [
            "http://hl7.org/fhir/StructureDefinition/Observation"
          ]
        },
        "identifier": [
          {
            "system": "urn:oid:1.2.840.113619.21.1.139060385287897942.9",
            "value": "Observation/1904982216378540",
            "assigner": {
              "display": "31913-41995-12761042 API Resource Identifier"
            }
          }
        ],
        "category": [
          {
            "coding": [
              {
                "system": "http://terminology.hl7.org/CodeSystem/observation-category",
                "code": "social-history"
              }
            ]
          }
        ],
        "status": "final",
        "code": {
          "coding": [
            {
              "code": "418494",
              "system": "1.2.840.113619.21.100.12.1053.139060385287897942",
              "display": "CHANCEPREGN"
            },
            {
              "system": "1.2.840.113619.21.100.12.1053.139060385287897942"
            }
          ],
          "text": "is there any chance that you could be pregnant?"
        },
        "effectiveDateTime": "2020-05-13T09:41:20-05:00",
        "valueString": "No",
        "subject": {
          "reference": "Patient/72bbe4eb-4bbd-bb73-bae9-8fd32c380882"
        }
      },
      "request": {
        "method": "PUT",
        "url": "Observation/350857f6-1e2c-974b-c499-d83a99359ed1"
      }
    },
    {
      "fullUrl": "urn:uuid:ca19e7e9-2e03-4ebc-a809-3d7f0ba3186f",
      "resource": {
        "resourceType": "Observation",
        "id": "ca19e7e9-2e03-4ebc-a809-3d7f0ba3186f",
        "meta": {
          "profile": [
            "http://hl7.org/fhir/StructureDefinition/Observation"
          ]
        },
        "identifier": [
          {
            "system": "urn:oid:1.2.840.113619.21.1.139060385287897942.9",
            "value": "Observation/1904982105373590",
            "assigner": {
              "display": "31913-41995-12761042 API Resource Identifier"
            }
          }
        ],
        "category": [
          {
            "coding": [
              {
                "system": "http://terminology.hl7.org/CodeSystem/observation-category",
                "code": "social-history"
              }
            ]
          }
        ],
        "status": "final",
        "code": {
          "coding": [
            {
              "code": "549318",
              "system": "1.2.840.113619.21.100.12.1053.139060385287897942",
              "display": "VAPE_USE"
            },
            {
              "system": "1.2.840.113619.21.100.12.1053.139060385287897942"
            }
          ],
          "text": "if the patient is using/has used a vaping item, Current, Former, Never Used, Not asked"
        },
        "effectiveDateTime": "2020-05-13T09:41:20-05:00",
        "valueString": "No",
        "subject": {
          "reference": "Patient/72bbe4eb-4bbd-bb73-bae9-8fd32c380882"
        }
      },
      "request": {
        "method": "PUT",
        "url": "Observation/ca19e7e9-2e03-4ebc-a809-3d7f0ba3186f"
      }
    }
  ]
}
}