{
  "Status": "OK",
  "FhirResource": {
  "resourceType": "Bundle",
  "type": "batch",
  "entry": [
    {
      "fullUrl": "1906844699671530",
      "resource": {
        "resourceType": "Composition",
        "id": "1906844699671530",
        "meta": {
          "profile": [
            "http://hl7.org/fhir/us/ecr/StructureDefinition/eicr-composition"
          ]
        },
        "identifier": {
          "use": "official",
          "type": {
            "coding": [
              {
                "code": "55751-2",
                "system": "http://loinc.org",
                "display": "Initial Public Health Case Report"
              }
            ]
          }
        },
        "extension": [
          {
            "url": "http://hl7.org/fhir/StructureDefinition/composition-clinicaldocument-versionNumber"
          },
          {
            "url": "https://www.hl7.org/implement/standards/product_brief.cfm?product_id=436",
            "valueString": "2016-12-01"
          }
        ],
        "status": "final",
        "type": {
          "coding": [
            {
              "code": "55751-2",
              "system": "http://loinc.org",
              "display": "Initial Public Health Case Report"
            }
          ]
        },
        "date": "2020-06-03T23:05:03-05:00",
        "title": "Initial Public Health Case Report",
        "confidentiality": "N",
        "event": [
          {
            "period": {
              "start": "2020-06-03T23:05:03-05:00"
            }
          }
        ],
        "section": [
          {
            "id": "a38d9bfe-f25a-c06f-ed70-3121e442985e",
            "title": "HISTORY OF PRESENT ILLNESS",
            "text": {
              "status": "generated",
              "div": "No, No, No, No, No, Missed period - New A/P A 20 yo with multiple positive pregnancy tests, absence of mesnses and negative preg test todya1) WE will get blood HCG to confirm preg or no preg in addition to STI labs, CBC. I will call patietn with results. If positive HCg follow quants and set up for US next week. Keep taking PNV - pt agrees with plan.·Instructions: We will call you with your lab tests when we received them. Please call with any vaginal bleeding or pelvic pain., extended (4 or more elements), AS is a 20 yo who presents for missed cycle. She has not been seen since 2011. She reports normal menstrual cycles Q 30 days, no spotting between until LMP 2/23/20. She had 4 pregnancy tests at home they were all positive. She was also seen at a clinic in south chicago and had a positive pregnancy test there but no lab work or US. Today her urine pregnancy was negative in our clinic - she denies any bleedinf or carmping, no abnl vaginal discharge/odor/pruritis. No vaginal lesions. No fevers. CP, SOB, cough, wheezing. PMHx; AnemiaSurg: DeniesAll: TylenolSocial: Denies T/E/D, No, No, No, No, No"
            },
            "code": {
              "coding": [
                {
                  "code": "10164-2",
                  "system": "http://loinc.org",
                  "display": "HISTORY OF PRESENT ILLNESS"
                }
              ]
            },
            "mode": "snapshot"
          },
          {
            "id": "94a9d5ce-efbf-1f31-e4a4-ac97ac17916b",
            "title": "REASON FOR VISIT",
            "text": {
              "status": "generated",
              "div": "Here for injection, pregnancy Test"
            },
            "code": {
              "coding": [
                {
                  "code": "29299-5",
                  "system": "http://loinc.org",
                  "display": "REASON FOR VISIT"
                }
              ]
            },
            "mode": "snapshot",
            "extension": [
              {
                "url": "http://hl7.org/fhir/cda/ccda/StructureDefinition/2.16.840.1.113883.10.20.22.2.12",
                "valueString": "Here for injection, pregnancy Test"
              }
            ]
          },
          {
            "id": "3a2ab890-01e6-9e86-d19d-96124be5ad55",
            "title": "SOCIAL HISTORY",
            "text": {
              "status": "generated",
              "div": "<table border=\"1\" width=\"100%\" xmlns=\"urn:hl7-org:v3\"><thead><tr><th align=\"left\">Date</th><th align=\"left\">Observation</th><th align=\"left\">Value</th><th align=\"left\">Provider</th></tr></thead><tbody><tr ID=\"d58818e13-1.2.840.113619.21.1.139060385287897942.10.1591243503964.785904\"><td align=\"left\">2020/05/13</td><td>passive cigarette smoke exposure</td><td>Yes</td><td>Rose Caceres </td></tr><tr ID=\"d58818e104-1.2.840.113619.21.1.139060385287897942.10.1591243503964.785904\"><td align=\"center\">\"</td><td>assessment of health literacy (NCQA PCMH 2014 Standards, 3C10)</td><td>Adequate</td><td>Rose Caceres </td></tr><tr ID=\"d58818e282-1.2.840.113619.21.1.139060385287897942.10.1591243503964.785904\"><td align=\"center\">\"</td><td>is there any chance that you could be pregnant?</td><td>No</td><td>Rose Caceres </td></tr><tr ID=\"d58818e369-1.2.840.113619.21.1.139060385287897942.10.1591243503964.785904\"><td align=\"center\">\"</td><td>if the patient is using/has used a vaping item, Current, Former, Never Used, Not asked</td><td>No</td><td>Rose Caceres </td></tr><tr ID=\"d58818e456-1.2.840.113619.21.1.139060385287897942.10.1591243503964.785904\"><td align=\"center\">\"</td><td>smoking status</td><td>never smoker</td><td>Rose Caceres </td></tr><tr ID=\"d58818e564-1.2.840.113619.21.1.139060385287897942.10.1591243503964.785904\"><td align=\"center\">\"</td><td>Exercise Program Referral</td><td>T</td><td>Rose Caceres </td></tr><tr ID=\"d58818e655-1.2.840.113619.21.1.139060385287897942.10.1591243503964.785904\"><td align=\"center\">\"</td><td>Weight Management Counseling Provided</td><td>T</td><td>Rose Caceres </td></tr><tr ID=\"d58818e742-1.2.840.113619.21.1.139060385287897942.10.1591243503964.785904\"><td align=\"center\">\"</td><td>Nutrition intervention</td><td>T</td><td>Rose Caceres </td></tr><tr ID=\"d58818e829-1.2.840.113619.21.1.139060385287897942.10.1591243503964.785904\"><td align=\"left\">2020/05/09</td><td>passive cigarette smoke exposure</td><td>No</td><td>Rose Caceres </td></tr><tr ID=\"d58818e920-1.2.840.113619.21.1.139060385287897942.10.1591243503964.785904\"><td align=\"center\">\"</td><td>assessment of health literacy (NCQA PCMH 2014 Standards, 3C10)</td><td>Adequate</td><td>Rose Caceres </td></tr><tr ID=\"d58818e1098-1.2.840.113619.21.1.139060385287897942.10.1591243503964.785904\"><td align=\"center\">\"</td><td>is there any chance that you could be pregnant?</td><td>Yes</td><td>Rose Caceres </td></tr><tr ID=\"d58818e1185-1.2.840.113619.21.1.139060385287897942.10.1591243503964.785904\"><td align=\"center\">\"</td><td>if the patient is using/has used a vaping item, Current, Former, Never Used, Not asked</td><td>No</td><td>Rose Caceres </td></tr><tr ID=\"d58818e1272-1.2.840.113619.21.1.139060385287897942.10.1591243503964.785904\"><td align=\"center\">\"</td><td>smoking status</td><td>never smoker</td><td>Rose Caceres </td></tr><tr ID=\"d58818e1379-1.2.840.113619.21.1.139060385287897942.10.1591243503964.785904\"><td align=\"center\">\"</td><td>Exercise Program Referral</td><td>T</td><td>Rose Caceres </td></tr><tr ID=\"d58818e1470-1.2.840.113619.21.1.139060385287897942.10.1591243503964.785904\"><td align=\"center\">\"</td><td>Weight Management Counseling Provided</td><td>T</td><td>Rose Caceres </td></tr><tr ID=\"d58818e1558-1.2.840.113619.21.1.139060385287897942.10.1591243503964.785904\"><td align=\"center\">\"</td><td>Nutrition intervention</td><td>T</td><td>Rose Caceres </td></tr></tbody></table>"
            },
            "code": {
              "coding": [
                {
                  "code": "29762-2",
                  "system": "http://loinc.org",
                  "display": "SOCIAL HISTORY"
                }
              ]
            },
            "mode": "snapshot",
            "entry": [
              {
                "reference": "Observation/e5806bd7-cd5e-3528-48fd-5ca2a5c4ae60"
              },
              {
                "reference": "Observation/de1234fb-675c-1087-a789-073307fde3fc"
              },
              {
                "reference": "Observation/8e8941a1-ab50-fd88-a690-939a7d2e92de"
              },
              {
                "reference": "Observation/d7a48b3e-4ac6-698f-ccc3-4aa8ec51089e"
              },
              {
                "reference": "Observation/ac821d97-a898-909f-de49-86fab91d3280"
              },
              {
                "reference": "Observation/1cc85389-d053-9b92-a2e9-cf5458cc00bb"
              },
              {
                "reference": "Observation/f8cc7cfb-bbc7-75d3-aeb8-6a5017918197"
              },
              {
                "reference": "Observation/081cbabb-c155-21d5-4fb5-a72564db53ee"
              },
              {
                "reference": "Observation/2c5d377c-a681-68cb-2523-7646e957569e"
              },
              {
                "reference": "Observation/4542c0ee-b884-9eff-43d4-9f90a5f0cf31"
              },
              {
                "reference": "Observation/71606fc9-dcc3-f118-4e04-55a75dad961e"
              },
              {
                "reference": "Observation/14be5382-3b0f-6e01-b642-fecb7492bfed"
              },
              {
                "reference": "Observation/9d19e66e-93cf-c7e6-f00c-54ef3a7c8240"
              },
              {
                "reference": "Observation/084cc4f4-9bad-dd2c-671d-5c9a6c9c61ea"
              },
              {
                "reference": "Observation/7c95c0f3-505a-20a6-9af7-053221a1a0ac"
              },
              {
                "reference": "Observation/121dd87a-ab6b-fac4-bb2d-a3ae2df91a74"
              }
            ]
          },
          {
            "id": "e8d22ea6-0132-54b5-d245-1267a9a4d1f7",
            "title": "ENCOUNTERS",
            "text": {
              "status": "generated",
              "div": "<table border=\"1\" width=\"100%\" xmlns=\"urn:hl7-org:v3\"><thead><tr><th align=\"left\">Date</th><th align=\"left\">Type</th><th align=\"left\">Provider</th><th align=\"left\">Location</th><th align=\"left\">Encounter Diagnosis</th></tr></thead><tbody><tr ID=\"d58804e13-1.2.840.113619.21.1.139060385287897942.10.1591243503909.657250\"><td>2020/05/13 - 2020/05/13</td><td>Walk In</td><td><list listType=\"unordered\"><item>Kanika Sood </item><item>Joanna Barrios </item><item>Rose Caceres </item></list></td><td>Komed Holman Health Center</td><td><list listType=\"unordered\"><item>EXPOSURE TO STD</item><item>Procedure and treatment not carried out due to patient leaving prior to being seen by health care provider</item></list></td></tr><tr ID=\"d58804e120-1.2.840.113619.21.1.139060385287897942.10.1591243503909.657250\"><td>2020/05/13 - 2020/05/13</td><td>Append</td><td><list listType=\"unordered\"><item>Abby Lankhorst </item></list></td><td>Near North Health Service Corporation</td><td>UNK</td></tr><tr ID=\"d58804e202-1.2.840.113619.21.1.139060385287897942.10.1591243503909.657250\"><td>2020/05/13 - 2020/05/13</td><td>Phone Note</td><td><list listType=\"unordered\"><item>Abby Lankhorst </item></list></td><td>Winfield Moody Health Center</td><td>UNK</td></tr><tr ID=\"d58804e284-1.2.840.113619.21.1.139060385287897942.10.1591243503909.657250\"><td>2020/05/09 - 2020/05/09</td><td>Lab Report</td><td><list listType=\"unordered\"><item>Abby Lankhorst </item><item>LinkLogic </item></list></td><td>Near North Health Service Corporation</td><td>UNK</td></tr><tr ID=\"d58804e372-1.2.840.113619.21.1.139060385287897942.10.1591243503909.657250\"><td>2020/05/09 - 2020/05/09</td><td>Consent Forms</td><td><list listType=\"unordered\"><item>Registration NNHSC Desktop </item><item>LinkLogic </item></list></td><td>Komed Holman Health Center</td><td>UNK</td></tr><tr ID=\"d58804e460-1.2.840.113619.21.1.139060385287897942.10.1591243503909.657250\"><td>2020/05/09 - 2020/05/09</td><td>Consent Forms</td><td><list listType=\"unordered\"><item>Registration NNHSC Desktop </item><item>LinkLogic </item></list></td><td>Komed Holman Health Center</td><td>UNK</td></tr><tr ID=\"d58804e549-1.2.840.113619.21.1.139060385287897942.10.1591243503909.657250\"><td>2020/05/09 - 2020/05/09</td><td>Registration</td><td><list listType=\"unordered\"><item>Registration NNHSC Desktop </item><item>LinkLogic </item></list></td><td>Komed Holman Health Center</td><td>UNK</td></tr><tr ID=\"d58804e637-1.2.840.113619.21.1.139060385287897942.10.1591243503909.657250\"><td>2020/05/09 - 2020/05/09</td><td>Lab Report</td><td><list listType=\"unordered\"><item>Abby Lankhorst </item><item>LinkLogic </item></list></td><td>Near North Health Service Corporation</td><td>UNK</td></tr><tr ID=\"d58804e725-1.2.840.113619.21.1.139060385287897942.10.1591243503909.657250\"><td>2020/05/09 - 2020/05/09</td><td>Office Visit</td><td><list listType=\"unordered\"><item>Abby Lankhorst </item><item>Olubunmi Erinolu </item><item>Rose Caceres </item><item>Carolyn Williams </item></list></td><td>Komed Holman Health Center</td><td><list listType=\"unordered\"><item>Missed period</item><item>Std screening</item><item>Anemia</item></list></td></tr></tbody></table>"
            },
            "code": {
              "coding": [
                {
                  "code": "46240-8",
                  "system": "http://loinc.org",
                  "display": "ENCOUNTERS"
                }
              ]
            },
            "mode": "snapshot"
          },
          {
            "id": "173d9840-6173-2c52-704a-721edefedd18",
            "title": "MEDICATIONS ADMINISTERED",
            "text": {
              "status": "generated",
              "div": "<table border=\"1\" width=\"100%\" xmlns=\"urn:hl7-org:v3\"><thead><tr><th align=\"left\">Medication</th><th align=\"left\">Status</th><th align=\"left\">Directions</th><th align=\"left\">Dates</th><th align=\"left\">Provider</th><th align=\"left\">Indications</th><th align=\"left\">Fill Instructions</th></tr></thead><tbody><tr ID=\"d58798e13-1.2.840.113619.21.1.139060385287897942.10.1591243503909.480521\"><td ID=\"d58798e100\">CEFTRIAXONE SODIUM</td><td>in-progress</td><td ID=\"d58798e109\">Buttock</td><td>2020/05/13 - 2020/05/13</td><td>Joanna Barrios </td><td>EXPOSURE TO STD</td><td ID=\"d58798e102a1065-1.2.840.113619.21.1.139060385287897942.10.1591243503909.480521\">give 250mg/ml IM PT TOLERATED INJECTION WELL. NO REDNESS OR SWELLING ON THE INJECTION SITE. PT WAS OBSERVED FOR 10 MINS. </td></tr></tbody></table>"
            },
            "code": {
              "coding": [
                {
                  "code": "29549-3",
                  "system": "http://loinc.org",
                  "display": "MEDICATIONS ADMINISTERED"
                }
              ]
            },
            "mode": "snapshot",
            "entry": [
              {
                "reference": "MedicationAdministration/8db695d2-faa5-2d3d-2c60-54a98e52bdf8"
              }
            ]
          },
          {
            "id": "312091db-904c-f4d2-2b4d-5c18e25e4817",
            "title": "HISTORY OF MEDICATION USE",
            "text": {
              "status": "generated",
              "div": "<table border=\"1\" width=\"100%\" xmlns=\"urn:hl7-org:v3\"><thead><tr><th align=\"left\">Medication</th><th align=\"left\">Status</th><th align=\"left\">Instructions</th><th align=\"left\">Dates</th><th align=\"left\">Provider</th><th align=\"left\">Indications</th><th align=\"left\">Comments</th></tr></thead><tbody><tr ID=\"d58866e18-1.2.840.113619.21.1.139060385287897942.10.1591243504027.800943\"><td ID=\"d58866e81\">AZITHROMYCIN 500 MG ORAL TABLET</td><td>active</td><td ID=\"d58866e84\">Take two tabs bymouth once</td><td>2020/05/13</td><td>Abby Lankhorst </td><td /><td /></tr><tr ID=\"d58866e100-1.2.840.113619.21.1.139060385287897942.10.1591243504027.800943\"><td ID=\"d58866e159\">CEFTRIAXONE SODIUM 250 MG INJECTION SOLUTION RECONSTITUTED</td><td>active</td><td ID=\"d58866e162\">Bring to office for injection</td><td>2020/05/13</td><td>Abby Lankhorst </td><td /><td /></tr><tr ID=\"d58866e168-1.2.840.113619.21.1.139060385287897942.10.1591243504027.800943\"><td ID=\"d58866e227\">IBUPROFEN 400 MG ORAL TABLET</td><td>active</td><td ID=\"d58866e230\">1 By Mouth Every Six-8 hrs As Needed fever or pain</td><td>2011/12/07</td><td>Antoinette Sallamme </td><td /><td /></tr><tr ID=\"d58866e236-1.2.840.113619.21.1.139060385287897942.10.1591243504027.800943\"><td ID=\"d58866e295\">CLARITIN 5 MG/5ML ORAL SYRUP</td><td>active</td><td ID=\"d58866e298\">2 tsp By Mouth Every Day As Needed allergies</td><td>2009/06/16</td><td>Antoinette Sallamme </td><td /><td /></tr><tr ID=\"d58866e304-1.2.840.113619.21.1.139060385287897942.10.1591243504027.800943\"><td ID=\"d58866e363\">TYLENOL CHILDRENS 160 MG/5ML ORAL SUSPENSION</td><td>active</td><td ID=\"d58866e366\">2 tsp By Mouth q6h As Needed fever or pain</td><td>2009/12/22</td><td>Antoinette Sallamme </td><td /><td /></tr><tr ID=\"d58866e372-1.2.840.113619.21.1.139060385287897942.10.1591243504027.800943\"><td ID=\"d58866e421\">DIPHENHYDRAMINE HCL 12.5 MG/5ML SYRP</td><td>active</td><td ID=\"d58866e424\">2 tsp By Mouth q8h As Needed congestion</td><td>2009/12/22</td><td>Antoinette Sallamme </td><td /><td /></tr><tr ID=\"d58866e431-1.2.840.113619.21.1.139060385287897942.10.1591243504027.800943\"><td ID=\"d58866e480\">NASACORT AQ 55 MCG/ACT NASAL AEROSOL</td><td>active</td><td ID=\"d58866e483\">1 spray both nostril Every Day As Needed</td><td>2008/05/14</td><td>Jenny Cha-Kim </td><td /><td /></tr><tr ID=\"d58866e489-1.2.840.113619.21.1.139060385287897942.10.1591243504027.800943\"><td ID=\"d58866e535\">TRITAL DM 10-4-15 MG/5ML LIQD</td><td>active</td><td /><td>2005/10/20</td><td>Cassandra Weatherall </td><td /><td /></tr></tbody></table>"
            },
            "code": {
              "coding": [
                {
                  "code": "10160-0",
                  "system": "http://loinc.org",
                  "display": "HISTORY OF MEDICATION USE"
                }
              ]
            },
            "mode": "snapshot"
          },
          {
            "id": "73d48e96-7efc-3e5e-a103-aa53cc3775e0",
            "title": "Problems",
            "text": {
              "status": "generated",
              "div": "No Known Problems"
            },
            "code": {
              "coding": [
                {
                  "code": "11450-4",
                  "system": "http://loinc.org",
                  "display": "Problem list - Reported"
                }
              ]
            },
            "mode": "snapshot",
            "entry": [
              {
                "display": "Problem - Problem",
                "reference": "Condition/947221ef-3cc5-5717-3724-dc1895f80e0f"
              }
            ]
          },
          {
            "id": "e5fcbf6f-7310-f605-3bc6-2125725cb44a",
            "title": "RESULTS",
            "text": {
              "status": "generated",
              "div": "<table border=\"1\" width=\"100%\" xmlns=\"urn:hl7-org:v3\"><thead><tr><th align=\"left\">Date</th><th align=\"left\">Observation</th><th align=\"left\">Value</th><th align=\"left\">Provider</th><th align=\"left\">Reference Range</th><th align=\"left\">Interpretation</th><th align=\"left\">Location</th></tr></thead><tbody><tr ID=\"d58829e13-1.2.840.113619.21.1.139060385287897942.10.1591243503980.574006\"><td align=\"left\">2020/05/09</td><td>Neisseria gonorrhoeae DNA probe</td><td>Positive</td><td>LinkLogic </td><td>Negative</td><td>Abnormal</td><td /></tr><tr ID=\"d58829e118-1.2.840.113619.21.1.139060385287897942.10.1591243503980.574006\"><td align=\"center\">\"</td><td>chlamydia DNA probe</td><td>Positive</td><td>LinkLogic </td><td>Negative</td><td>Abnormal</td><td /></tr></tbody></table>"
            },
            "code": {
              "coding": [
                {
                  "code": "30954-2",
                  "system": "http://loinc.org",
                  "display": "RESULTS"
                }
              ]
            },
            "mode": "snapshot",
            "entry": [
              {
                "reference": "Observation/3116dbd9-a609-b697-b8e4-0dd62caee50a",
                "display": "Neisseria gonorrhoeae DNA probe"
              },
              {
                "reference": "Observation/7612e5d3-57dd-1aa4-06a5-5e1ea1090689",
                "display": "chlamydia DNA probe"
              }
            ]
          }
        ],
        "subject": {
          "reference": "Patient/f0094322-549c-1828-1f7d-27b001cf4edb"
        },
        "encounter": {
          "reference": "Encounter/bb44bb8e-af4d-7cf5-b8a0-bfed3557d83a"
        },
        "custodian": {
          "reference": "Organization/2bae76ef-8be0-941b-6672-72b84298d223"
        },
        "author": [
          {
            "reference": "PractitionerRole/9abfda73-a25d-69e5-95d2-96329384db2b"
          },
          {
            "reference": "Device/48c756a8-18ae-5310-e8d7-2de6957e99b8"
          }
        ]
      },
      "request": {
        "method": "PUT",
        "url": "Composition/1906844699671530"
      }
    },
    {
      "fullUrl": "urn:uuid:bb44bb8e-af4d-7cf5-b8a0-bfed3557d83a",
      "resource": {
        "resourceType": "Encounter",
        "id": "bb44bb8e-af4d-7cf5-b8a0-bfed3557d83a",
        "status": "unknown",
        "class": {
          "code": "PHC2237",
          "system": "2.16.840.1.114222.4.5.274",
          "display": "External Encounter"
        },
        "identifier": [
          {
            "extension": {
              "url": "http://hl7.org/fhir/ValueSet/data-absent-reason",
              "valueCode": "not-applicable"
            }
          }
        ],
        "subject": {
          "reference": "Patient/f0094322-549c-1828-1f7d-27b001cf4edb"
        },
        "location": [
          {
            "id": "2.16.840.1.113883.4.6",
            "location": {
              "reference": "Location/bdf4bd41-5f95-3434-7bad-c22f469af6db",
              "display": "None"
            },
            "extension": [
              {
                "url": "http://build.fhir.org/ig/HL7/case-reporting/StructureDefinition-us-ph-location-definitions.html#Location.type",
                "valueCodeableConcept": {
                  "coding": [
                    {
                      "system": "http://hl7.org/fhir/sid/us-npi"
                    }
                  ]
                }
              }
            ]
          }
        ],
        "serviceProvider": {
          "reference": "Organization/42e178bb-0fd1-7329-a02e-c06b5c9782b8"
        },
        "participant": [
          {
            "type": [
              {
                "coding": [
                  {
                    "system": "http://terminology.hl7.org/CodeSystem/v3-ParticipationType",
                    "code": "ATND"
                  }
                ]
              }
            ],
            "individual": {
              "reference": "PractitionerRole/e8d30303-e0a1-2dbb-bddb-d208c95aad77"
            }
          }
        ]
      },
      "request": {
        "method": "PUT",
        "url": "Encounter/bb44bb8e-af4d-7cf5-b8a0-bfed3557d83a"
      }
    },
    {
      "fullUrl": "urn:uuid:bdf4bd41-5f95-3434-7bad-c22f469af6db",
      "resource": {
        "resourceType": "Location",
        "id": "bdf4bd41-5f95-3434-7bad-c22f469af6db",
        "identifier": [
          {
            "system": "http://hl7.org/fhir/sid/us-npi",
            "_value": {
              "extension": {
                "url": "http://hl7.org/fhir/ValueSet/data-absent-reason",
                "valueCode": "not-applicable"
              }
            }
          }
        ],
        "type": [
          {
            "coding": [
              {
                "system": "http://hl7.org/fhir/sid/us-npi"
              }
            ]
          }
        ]
      },
      "request": {
        "method": "PUT",
        "url": "Location/bdf4bd41-5f95-3434-7bad-c22f469af6db"
      }
    },
    {
      "fullUrl": "urn:uuid:42e178bb-0fd1-7329-a02e-c06b5c9782b8",
      "resource": {
        "resourceType": "Organization",
        "id": "42e178bb-0fd1-7329-a02e-c06b5c9782b8"
      },
      "request": {
        "method": "PUT",
        "url": "Organization/42e178bb-0fd1-7329-a02e-c06b5c9782b8"
      }
    },
    {
      "fullUrl": "urn:uuid:e8d30303-e0a1-2dbb-bddb-d208c95aad77",
      "resource": {
        "resourceType": "Practitioner",
        "id": "e8d30303-e0a1-2dbb-bddb-d208c95aad77",
        "meta": {
          "profile": [
            "http://hl7.org/fhir/us/core/StructureDefinition/us-core-practitioner"
          ]
        },
        "extension": [
          {
            "url": "http://hl7.org/fhir/StructureDefinition/_datatype",
            "valueString": "Responsible Party"
          }
        ],
        "identifier": [
          {
            "system": "http://hl7.org/fhir/sid/us-npi",
            "_value": {
              "extension": {
                "url": "http://hl7.org/fhir/ValueSet/data-absent-reason",
                "valueCode": "not-applicable"
              }
            }
          }
        ]
      },
      "request": {
        "method": "PUT",
        "url": "Practitioner/e8d30303-e0a1-2dbb-bddb-d208c95aad77"
      }
    },
    {
      "resource": {
        "resourceType": "PractitionerRole",
        "id": "e8d30303-e0a1-2dbb-bddb-d208c95aad77",
        "practitioner": {
          "reference": "Practitioner/e8d30303-e0a1-2dbb-bddb-d208c95aad77"
        },
        "organization": {
          "reference": "Organization/43eaaf8e-f805-d37c-8e4e-77965eef87aa"
        }
      }
    },
    {
      "fullUrl": "urn:uuid:43eaaf8e-f805-d37c-8e4e-77965eef87aa",
      "resource": {
        "resourceType": "Organization",
        "id": "43eaaf8e-f805-d37c-8e4e-77965eef87aa"
      },
      "request": {
        "method": "PUT",
        "url": "Organization/43eaaf8e-f805-d37c-8e4e-77965eef87aa"
      }
    },
    {
      "fullUrl": "urn:uuid:2bae76ef-8be0-941b-6672-72b84298d223",
      "resource": {
        "resourceType": "Organization",
        "id": "2bae76ef-8be0-941b-6672-72b84298d223",
        "identifier": [
          {
            "system": "urn:oid:1.2.840.113619.21.1.139060385287897942.9",
            "value": "Organization/LO-1454412490000610",
            "assigner": {
              "display": " API Resource Identifier"
            }
          },
          {
            "system": "UNK",
            "value": "LO-1454412490000610",
            "assigner": {
              "display": "Organization Identifier"
            }
          },
          {
            "system": "urn:oid:2.16.840.1.113883.4.2",
            "value": "363197647",
            "assigner": {
              "display": "Tax ID number"
            }
          }
        ],
        "name": "Komed Holman Health Center",
        "address": [
          {
            "line": [
              "4259 S. Berkeley"
            ],
            "city": "Chicago",
            "state": "IL",
            "country": "USA",
            "postalCode": "60653"
          }
        ],
        "telecom": [
          {
            "system": "phone",
            "value": "7732687600",
            "use": "work"
          }
        ]
      },
      "request": {
        "method": "PUT",
        "url": "Organization/2bae76ef-8be0-941b-6672-72b84298d223"
      }
    },
    {
      "fullUrl": "urn:uuid:406c3e36-d27a-041b-61a8-e29df69f50e1",
      "resource": {
        "resourceType": "Practitioner",
        "id": "406c3e36-d27a-041b-61a8-e29df69f50e1",
        "meta": {
          "profile": [
            "http://hl7.org/fhir/us/core/StructureDefinition/us-core-practitioner"
          ]
        },
        "identifier": [
          {
            "system": "urn:oid:1.2.840.113619.21.1.139060385287897942.2.2",
            "value": "1467041069000630",
            "assigner": {
              "display": " Providers by PVID"
            }
          },
          {
            "system": "urn:oid:1.2.840.113619.21.1.139060385287897942.2.1",
            "value": "365",
            "assigner": {
              "display": " Providers by DoctorFacility"
            }
          }
        ],
        "name": [
          {
            "family": "Nurse Desk",
            "given": [
              "KH WH"
            ]
          }
        ],
        "address": [
          {
            "line": [
              "Winfield Moody",
              "1276 N Clybourn"
            ],
            "city": "Chicago",
            "state": "IL",
            "postalCode": "60653"
          }
        ],
        "telecom": [
          {
            "system": "phone",
            "value": "3123371073",
            "use": "work"
          },
          {
            "system": "phone",
            "value": "3123377616",
            "use": "mobile"
          }
        ]
      },
      "request": {
        "method": "PUT",
        "url": "Practitioner/406c3e36-d27a-041b-61a8-e29df69f50e1"
      }
    },
    {
      "fullUrl": "urn:uuid:01fe444a-5df3-6915-447b-5b16fe2c6872",
      "resource": {
        "resourceType": "Organization",
        "id": "01fe444a-5df3-6915-447b-5b16fe2c6872",
        "identifier": [
          {
            "system": "urn:oid:1.2.840.113619.21.1.139060385287897942.9",
            "value": "Organization/DF-76",
            "assigner": {
              "display": " API Resource Identifier"
            }
          },
          {
            "system": "UNK",
            "value": "DF-76",
            "assigner": {
              "display": "Organization Identifier"
            }
          },
          {
            "system": "http://hl7.org/fhir/sid/us-npi",
            "value": "1821079088",
            "assigner": {
              "display": "National Provider Identifier"
            }
          },
          {
            "system": "urn:oid:2.16.840.1.113883.4.2",
            "value": "363197647",
            "assigner": {
              "display": "Tax ID number"
            }
          }
        ],
        "name": "Winfield Moody Health Center",
        "address": [
          {
            "line": [
              "1276 N Clybourn"
            ],
            "city": "Chicago",
            "state": "IL ",
            "postalCode": "60610     "
          }
        ],
        "telecom": [
          {
            "system": "phone",
            "value": "3123371073     ",
            "use": "work"
          }
        ]
      },
      "request": {
        "method": "PUT",
        "url": "Organization/01fe444a-5df3-6915-447b-5b16fe2c6872"
      }
    },
    {
      "resource": {
        "resourceType": "PractitionerRole",
        "id": "9abfda73-a25d-69e5-95d2-96329384db2b",
        "organization": {
          "reference": "Organization/01fe444a-5df3-6915-447b-5b16fe2c6872"
        },
        "practitioner": {
          "reference": "Practitioner/406c3e36-d27a-041b-61a8-e29df69f50e1"
        }
      }
    },
    {
      "fullUrl": "urn:uuid:48c756a8-18ae-5310-e8d7-2de6957e99b8",
      "resource": {
        "resourceType": "Device",
        "id": "48c756a8-18ae-5310-e8d7-2de6957e99b8",
        "identifier": [
          {
            "system": "urn:ietf:rfc:3986",
            "value": "urn:oid:1.2.840.113619.21.1.139060385287897942.11"
          }
        ],
        "manufacturer": "12.3/9.12",
        "version": [
          {
            "value": "GE Healthcare API Server"
          }
        ],
        "property": [
          {
            "type": {
              "coding": [
                {
                  "system": "http://hl7.org/fhir/device-category",
                  "code": "software",
                  "display": "software"
                }
              ]
            }
          }
        ],
        "owner": {
          "reference": "Organization/2bae76ef-8be0-941b-6672-72b84298d223"
        }
      },
      "request": {
        "method": "PUT",
        "url": "Device/48c756a8-18ae-5310-e8d7-2de6957e99b8"
      }
    },
    {
      "fullUrl": "urn:uuid:f0094322-549c-1828-1f7d-27b001cf4edb",
      "resource": {
        "resourceType": "Patient",
        "id": "f0094322-549c-1828-1f7d-27b001cf4edb",
        "meta": {
          "profile": [
            "http://hl7.org/fhir/us/core/StructureDefinition/us-core-patient"
          ]
        },
        "identifier": [
          {
            "system": "urn:oid:1.2.840.113619.21.1.139060385287897942.2.1.1.1",
            "value": "1457816482200610"
          },
          {
            "system": "urn:oid:1.2.840.113619.21.1.139060385287897942.2.1.1.2",
            "value": "53650",
            "assigner": {
              "display": "GE EMR-CPS PatientId"
            }
          },
          {
            "system": "urn:oid:1.2.840.113619.21.1.139060385287897942.2.1.1",
            "value": "K85294",
            "assigner": {
              "display": "GE EMR-CPS PatientMRN"
            }
          }
        ],
        "name": [
          {
            "use": "official",
            "family": "Patient6",
            "given": [
              "Sample"
            ]
          }
        ],
        "birthDate": "1991-06-01",
        "deceasedBoolean": false,
        "gender": "female",
        "extension": [
          {
            "url": "http://hl7.org/fhir/us/core/StructureDefinition/us-core-race",
            "extension": [
              {
                "url": "ombCategory",
                "valueCoding": {
                  "code": "2054-5",
                  "system": "urn:oid:2.16.840.1.113883.6.238",
                  "display": "Black or African American"
                }
              },
              {
                "url": "text",
                "valueString": "Black or African American"
              }
            ]
          },
          {
            "url": "http://hl7.org/fhir/us/core/StructureDefinition/us-core-ethnicity",
            "extension": [
              {
                "url": "ombCategory",
                "valueCoding": {
                  "code": "2186-5",
                  "system": "urn:oid:2.16.840.1.113883.6.238",
                  "display": "Not Hispanic or Latino"
                }
              },
              {
                "url": "text",
                "valueString": "Not Hispanic or Latino"
              }
            ]
          }
        ],
        "address": [
          {
            "line": [
              "6 Sample Street",
              "apt 2"
            ],
            "city": "Chicago",
            "state": "IL",
            "postalCode": "60653"
          }
        ],
        "telecom": [
          {
            "system": "phone",
            "value": "3129998888",
            "use": "mobile"
          }
        ],
        "communication": [
          {
            "language": {
              "coding": [
                {
                  "system": "urn:ietf:bcp:47",
                  "code": "en",
                  "display": "English"
                }
              ]
            },
            "preferred": true
          }
        ]
      },
      "request": {
        "method": "PUT",
        "url": "Patient/f0094322-549c-1828-1f7d-27b001cf4edb"
      }
    },
    {
      "fullUrl": "urn:uuid:8db695d2-faa5-2d3d-2c60-54a98e52bdf8",
      "resource": {
        "resourceType": "MedicationAdministration",
        "id": "8db695d2-faa5-2d3d-2c60-54a98e52bdf8",
        "identifier": [
          {
            "system": "urn:oid:1.2.840.113619.21.1.139060385287897942.9",
            "value": "MedicationAdministration/1904992426866470",
            "assigner": {
              "display": "31913-41995-12761042 API Resource Identifier"
            }
          },
          {
            "system": "UNK",
            "value": "1904992426866470",
            "assigner": {
              "display": "Unknown"
            }
          }
        ],
        "status": "in-progress",
        "effectivePeriod": {
          "start": "2020-05-13T12:32:00-05:00",
          "end": "2020-05-13T12:32:00-05:00"
        },
        "dosage": {
          "route": {
            "coding": [
              {
                "code": "C28161",
                "system": "2.16.840.1.113883.3.26.1.1",
                "display": "INTRAMUSCULAR"
              }
            ],
            "text": "INTRAMUSCULAR"
          },
          "dose": {
            "value": 250,
            "unit": "mg"
          }
        },
        "subject": {
          "reference": "Patient/f0094322-549c-1828-1f7d-27b001cf4edb"
        },
        "medicationReference": {
          "reference": "Medication/ed9eef1e-30d2-4ca6-5799-9cabdcc38fa9"
        }
      },
      "request": {
        "method": "PUT",
        "url": "MedicationAdministration/8db695d2-faa5-2d3d-2c60-54a98e52bdf8"
      }
    },
    {
      "fullUrl": "urn:uuid:ed9eef1e-30d2-4ca6-5799-9cabdcc38fa9",
      "resource": {
        "resourceType": "Medication",
        "id": "ed9eef1e-30d2-4ca6-5799-9cabdcc38fa9",
        "code": {
          "coding": [
            {
              "code": "309092",
              "system": "http://www.nlm.nih.gov/research/umls/rxnorm",
              "display": "CEFTRIAXONE SODIUM"
            },
            {
              "code": "25900",
              "system": "2.16.840.1.113883.6.253"
            },
            {
              "code": "02300090102105",
              "system": "2.16.840.1.113883.6.68"
            },
            {
              "code": "2880",
              "system": "1.2.840.113619.21.100.12.998"
            },
            {
              "code": "8229",
              "system": "1.2.840.113619.21.100.12.999"
            },
            {
              "code": "00143985925",
              "system": "2.16.840.1.113883.6.69"
            }
          ],
          "text": "(CEFTRIAXONE SODIUM) 250 MG SOLR"
        }
      },
      "request": {
        "method": "PUT",
        "url": "Medication/ed9eef1e-30d2-4ca6-5799-9cabdcc38fa9"
      }
    },
    {
      "fullUrl": "urn:uuid:26569767-25e4-73d4-9bbf-8a3d4c366d76",
      "resource": {
        "resourceType": "MedicationStatement",
        "id": "26569767-25e4-73d4-9bbf-8a3d4c366d76",
        "identifier": [
          {
            "system": "urn:oid:1.2.840.113619.21.1.139060385287897942.9",
            "value": "MedicationStatement/1904975512145010",
            "assigner": {
              "display": " API Resource Identifier"
            }
          }
        ],
        "status": "active",
        "effectivePeriod": {
          "start": "2020-05-13T00:00:00-05:00"
        },
        "subject": {
          "reference": "Patient/f0094322-549c-1828-1f7d-27b001cf4edb"
        },
        "medicationReference": {
          "reference": "Medication/65f63e94-64a1-cf89-3c94-11189604d417"
        }
      },
      "request": {
        "method": "PUT",
        "url": "MedicationStatement/26569767-25e4-73d4-9bbf-8a3d4c366d76"
      }
    },
    {
      "fullUrl": "urn:uuid:65f63e94-64a1-cf89-3c94-11189604d417",
      "resource": {
        "resourceType": "Medication",
        "id": "65f63e94-64a1-cf89-3c94-11189604d417",
        "code": {
          "coding": [
            {
              "code": "248656",
              "system": "http://www.nlm.nih.gov/research/umls/rxnorm",
              "display": "AZITHROMYCIN"
            },
            {
              "code": "749780",
              "system": "http://www.nlm.nih.gov/research/umls/rxnorm",
              "display": "{3 (azithromycin 500 MG Oral Tablet) } Pack"
            },
            {
              "code": "44793",
              "system": "2.16.840.1.113883.6.253"
            },
            {
              "code": "03400010000334",
              "system": "2.16.840.1.113883.6.68"
            },
            {
              "code": "5799",
              "system": "1.2.840.113619.21.100.12.998"
            },
            {
              "code": "1944",
              "system": "1.2.840.113619.21.100.12.999"
            },
            {
              "code": "50111078810",
              "system": "2.16.840.1.113883.6.69"
            }
          ],
          "text": "(AZITHROMYCIN) 500 MG TABS"
        }
      },
      "request": {
        "method": "PUT",
        "url": "Medication/65f63e94-64a1-cf89-3c94-11189604d417"
      }
    },
    {
      "fullUrl": "urn:uuid:973caa06-535b-86f9-6689-4252d3857712",
      "resource": {
        "resourceType": "MedicationRequest",
        "id": "973caa06-535b-86f9-6689-4252d3857712",
        "identifier": [
          {
            "system": "urn:oid:1.2.840.113619.21.1.139060385287897942.9",
            "value": "MedicationOrder/1904975615147100",
            "assigner": {
              "display": " API Resource Identifier"
            }
          },
          {
            "system": "UNK",
            "value": "FD94A16317A54681A737A0A1AB424357",
            "assigner": {
              "display": "Unknown"
            }
          }
        ],
        "status": "completed",
        "intent": "order",
        "authoredOn": "2020-05-13T07:59:15.833-05:00",
        "dispenseRequest": {
          "numberOfRepeatsAllowed": 0
        },
        "subject": {
          "reference": "Patient/f0094322-549c-1828-1f7d-27b001cf4edb"
        },
        "medicationReference": {
          "reference": "Medication/65f63e94-64a1-cf89-3c94-11189604d417"
        },
        "requester": {
          "reference": "Practitioner/d9b69512-19f2-6c00-7eb7-d579bbbbe5e8"
        }
      },
      "request": {
        "method": "PUT",
        "url": "MedicationRequest/973caa06-535b-86f9-6689-4252d3857712"
      }
    },
    {
      "fullUrl": "urn:uuid:d9b69512-19f2-6c00-7eb7-d579bbbbe5e8",
      "resource": {
        "resourceType": "Practitioner",
        "id": "d9b69512-19f2-6c00-7eb7-d579bbbbe5e8",
        "meta": {
          "profile": [
            "http://hl7.org/fhir/us/core/StructureDefinition/us-core-practitioner"
          ]
        },
        "identifier": [
          {
            "system": "urn:oid:1.2.840.113619.21.1.139060385287897942.2.2",
            "value": "1881830337473020",
            "assigner": {
              "display": " Providers by PVID"
            }
          },
          {
            "system": "urn:oid:1.2.840.113619.21.1.139060385287897942.2.1",
            "value": "1811",
            "assigner": {
              "display": " Providers by DoctorFacility"
            }
          },
          {
            "system": "http://hl7.org/fhir/sid/us-npi",
            "value": "1811159825",
            "assigner": {
              "display": "US National Provider Identifiers"
            }
          },
          {
            "system": "urn:oid:2.16.840.1.113883.4.2",
            "value": "363197647",
            "assigner": {
              "display": "Federal Tax Identifier"
            }
          }
        ],
        "name": [
          {
            "family": "Lankhorst",
            "given": [
              "Abby"
            ]
          }
        ],
        "address": [
          {
            "line": [
              "Winfield Moody",
              "1276 N. Clybourn"
            ],
            "city": "Chicago",
            "state": "IL",
            "postalCode": "60610"
          }
        ],
        "telecom": [
          {
            "system": "phone",
            "value": "3123371073",
            "use": "work"
          },
          {
            "system": "phone",
            "value": "3123377616",
            "use": "mobile"
          }
        ]
      },
      "request": {
        "method": "PUT",
        "url": "Practitioner/d9b69512-19f2-6c00-7eb7-d579bbbbe5e8"
      }
    },
    {
      "fullUrl": "urn:uuid:0e99f7d2-61a8-dd26-21db-0bf38ba6b735",
      "resource": {
        "resourceType": "MedicationStatement",
        "id": "0e99f7d2-61a8-dd26-21db-0bf38ba6b735",
        "identifier": [
          {
            "system": "urn:oid:1.2.840.113619.21.1.139060385287897942.9",
            "value": "MedicationStatement/1904975512144970",
            "assigner": {
              "display": " API Resource Identifier"
            }
          }
        ],
        "status": "active",
        "effectivePeriod": {
          "start": "2020-05-13T00:00:00-05:00"
        },
        "subject": {
          "reference": "Patient/f0094322-549c-1828-1f7d-27b001cf4edb"
        },
        "medicationReference": {
          "reference": "Medication/080f6a96-def3-492a-8a1e-fdc39118cb3a"
        }
      },
      "request": {
        "method": "PUT",
        "url": "MedicationStatement/0e99f7d2-61a8-dd26-21db-0bf38ba6b735"
      }
    },
    {
      "fullUrl": "urn:uuid:080f6a96-def3-492a-8a1e-fdc39118cb3a",
      "resource": {
        "resourceType": "Medication",
        "id": "080f6a96-def3-492a-8a1e-fdc39118cb3a",
        "code": {
          "coding": [
            {
              "code": "309092",
              "system": "http://www.nlm.nih.gov/research/umls/rxnorm",
              "display": "CEFTRIAXONE SODIUM"
            },
            {
              "code": "25900",
              "system": "2.16.840.1.113883.6.253"
            },
            {
              "code": "02300090102105",
              "system": "2.16.840.1.113883.6.68"
            },
            {
              "code": "2880",
              "system": "1.2.840.113619.21.100.12.998"
            },
            {
              "code": "8229",
              "system": "1.2.840.113619.21.100.12.999"
            },
            {
              "code": "00143985925",
              "system": "2.16.840.1.113883.6.69"
            }
          ],
          "text": "(CEFTRIAXONE SODIUM) 250 MG SOLR"
        }
      },
      "request": {
        "method": "PUT",
        "url": "Medication/080f6a96-def3-492a-8a1e-fdc39118cb3a"
      }
    },
    {
      "fullUrl": "urn:uuid:e030f887-7077-11d6-b100-495dcae95e18",
      "resource": {
        "resourceType": "MedicationRequest",
        "id": "e030f887-7077-11d6-b100-495dcae95e18",
        "identifier": [
          {
            "system": "urn:oid:1.2.840.113619.21.1.139060385287897942.9",
            "value": "MedicationOrder/1904975512145000",
            "assigner": {
              "display": " API Resource Identifier"
            }
          },
          {
            "system": "UNK",
            "value": "B4E65CAB0EA341AD9EB2731D63FE7A2E",
            "assigner": {
              "display": "Unknown"
            }
          }
        ],
        "status": "completed",
        "intent": "order",
        "authoredOn": "2020-05-13T07:59:15.593-05:00",
        "dispenseRequest": {
          "numberOfRepeatsAllowed": 0
        },
        "subject": {
          "reference": "Patient/f0094322-549c-1828-1f7d-27b001cf4edb"
        },
        "medicationReference": {
          "reference": "Medication/080f6a96-def3-492a-8a1e-fdc39118cb3a"
        },
        "requester": {
          "reference": "Practitioner/d9b69512-19f2-6c00-7eb7-d579bbbbe5e8"
        }
      },
      "request": {
        "method": "PUT",
        "url": "MedicationRequest/e030f887-7077-11d6-b100-495dcae95e18"
      }
    },
    {
      "fullUrl": "urn:uuid:c6f21b17-e5f7-ce44-b7e8-f3124295b9f3",
      "resource": {
        "resourceType": "MedicationStatement",
        "id": "c6f21b17-e5f7-ce44-b7e8-f3124295b9f3",
        "identifier": [
          {
            "system": "urn:oid:1.2.840.113619.21.1.139060385287897942.9",
            "value": "MedicationStatement/1638898649004110",
            "assigner": {
              "display": " API Resource Identifier"
            }
          }
        ],
        "status": "active",
        "effectivePeriod": {
          "start": "2011-12-07T00:00:00-06:00"
        },
        "subject": {
          "reference": "Patient/f0094322-549c-1828-1f7d-27b001cf4edb"
        },
        "medicationReference": {
          "reference": "Medication/9046dcec-23e8-a365-8820-2be53285f8b3"
        }
      },
      "request": {
        "method": "PUT",
        "url": "MedicationStatement/c6f21b17-e5f7-ce44-b7e8-f3124295b9f3"
      }
    },
    {
      "fullUrl": "urn:uuid:9046dcec-23e8-a365-8820-2be53285f8b3",
      "resource": {
        "resourceType": "Medication",
        "id": "9046dcec-23e8-a365-8820-2be53285f8b3",
        "code": {
          "coding": [
            {
              "code": "197805",
              "system": "http://www.nlm.nih.gov/research/umls/rxnorm",
              "display": "IBUPROFEN"
            },
            {
              "code": "10518",
              "system": "2.16.840.1.113883.6.253"
            },
            {
              "code": "66100020000320",
              "system": "2.16.840.1.113883.6.68"
            },
            {
              "code": "665",
              "system": "1.2.840.113619.21.100.12.998"
            },
            {
              "code": "6529",
              "system": "1.2.840.113619.21.100.12.999"
            },
            {
              "code": "00904585340",
              "system": "2.16.840.1.113883.6.69"
            }
          ],
          "text": "(IBUPROFEN) 400 MG TABS"
        }
      },
      "request": {
        "method": "PUT",
        "url": "Medication/9046dcec-23e8-a365-8820-2be53285f8b3"
      }
    },
    {
      "fullUrl": "urn:uuid:62ec61a4-3586-256f-77e0-d1786b4815bf",
      "resource": {
        "resourceType": "MedicationRequest",
        "id": "62ec61a4-3586-256f-77e0-d1786b4815bf",
        "identifier": [
          {
            "system": "urn:oid:1.2.840.113619.21.1.139060385287897942.9",
            "value": "MedicationOrder/1638898649154110",
            "assigner": {
              "display": " API Resource Identifier"
            }
          }
        ],
        "status": "completed",
        "intent": "order",
        "dispenseRequest": {
          "numberOfRepeatsAllowed": 1
        },
        "subject": {
          "reference": "Patient/f0094322-549c-1828-1f7d-27b001cf4edb"
        },
        "medicationReference": {
          "reference": "Medication/9046dcec-23e8-a365-8820-2be53285f8b3"
        },
        "requester": {
          "reference": "Practitioner/3bf9c991-c193-97f6-1676-3d4bbb689b36"
        }
      },
      "request": {
        "method": "PUT",
        "url": "MedicationRequest/62ec61a4-3586-256f-77e0-d1786b4815bf"
      }
    },
    {
      "fullUrl": "urn:uuid:3bf9c991-c193-97f6-1676-3d4bbb689b36",
      "resource": {
        "resourceType": "Practitioner",
        "id": "3bf9c991-c193-97f6-1676-3d4bbb689b36",
        "meta": {
          "profile": [
            "http://hl7.org/fhir/us/core/StructureDefinition/us-core-practitioner"
          ]
        },
        "identifier": [
          {
            "system": "urn:oid:1.2.840.113619.21.1.139060385287897942.2.2",
            "value": "1645445284000330",
            "assigner": {
              "display": " Providers by PVID"
            }
          },
          {
            "system": "urn:oid:1.2.840.113619.21.1.139060385287897942.2.1",
            "value": "33",
            "assigner": {
              "display": " Providers by DoctorFacility"
            }
          },
          {
            "system": "http://hl7.org/fhir/sid/us-npi",
            "value": "1790843993",
            "assigner": {
              "display": "US National Provider Identifiers"
            }
          }
        ],
        "name": [
          {
            "family": "Sallamme",
            "given": [
              "Antoinette"
            ]
          }
        ],
        "address": [
          {
            "line": [
              "4259 S Berkeley",
              "w"
            ],
            "city": "Chicago",
            "state": "IL ",
            "country": "w",
            "postalCode": "60653"
          }
        ],
        "telecom": [
          {
            "system": "phone",
            "value": "7732687600",
            "use": "work"
          },
          {
            "system": "phone",
            "value": "7732689088",
            "use": "mobile"
          }
        ]
      },
      "request": {
        "method": "PUT",
        "url": "Practitioner/3bf9c991-c193-97f6-1676-3d4bbb689b36"
      }
    },
    {
      "fullUrl": "urn:uuid:97e91e41-1116-93cc-fb87-72e459744dc8",
      "resource": {
        "resourceType": "MedicationStatement",
        "id": "97e91e41-1116-93cc-fb87-72e459744dc8",
        "identifier": [
          {
            "system": "urn:oid:1.2.840.113619.21.1.139060385287897942.9",
            "value": "MedicationStatement/1560783349005700",
            "assigner": {
              "display": " API Resource Identifier"
            }
          }
        ],
        "status": "active",
        "effectivePeriod": {
          "start": "2009-06-16T00:00:00-05:00"
        },
        "subject": {
          "reference": "Patient/f0094322-549c-1828-1f7d-27b001cf4edb"
        },
        "medicationReference": {
          "reference": "Medication/0287ecc9-adbe-520e-c39c-7524ef4ba7a1"
        }
      },
      "request": {
        "method": "PUT",
        "url": "MedicationStatement/97e91e41-1116-93cc-fb87-72e459744dc8"
      }
    },
    {
      "fullUrl": "urn:uuid:0287ecc9-adbe-520e-c39c-7524ef4ba7a1",
      "resource": {
        "resourceType": "Medication",
        "id": "0287ecc9-adbe-520e-c39c-7524ef4ba7a1",
        "code": {
          "coding": [
            {
              "code": "755476",
              "system": "http://www.nlm.nih.gov/research/umls/rxnorm",
              "display": "LORATADINE"
            },
            {
              "code": "58496",
              "system": "2.16.840.1.113883.6.253"
            },
            {
              "code": "41550030001220",
              "system": "2.16.840.1.113883.6.68"
            },
            {
              "code": "2446",
              "system": "1.2.840.113619.21.100.12.998"
            },
            {
              "code": "6694",
              "system": "1.2.840.113619.21.100.12.999"
            },
            {
              "code": "41100080463",
              "system": "2.16.840.1.113883.6.69"
            }
          ],
          "text": "CLARITIN (LORATADINE) 5 MG/5ML SYRP"
        }
      },
      "request": {
        "method": "PUT",
        "url": "Medication/0287ecc9-adbe-520e-c39c-7524ef4ba7a1"
      }
    },
    {
      "fullUrl": "urn:uuid:8bb38a1b-33ea-901f-c294-bde15a3c3350",
      "resource": {
        "resourceType": "MedicationRequest",
        "id": "8bb38a1b-33ea-901f-c294-bde15a3c3350",
        "identifier": [
          {
            "system": "urn:oid:1.2.840.113619.21.1.139060385287897942.9",
            "value": "MedicationOrder/1560783349155700",
            "assigner": {
              "display": " API Resource Identifier"
            }
          }
        ],
        "status": "completed",
        "intent": "order",
        "dispenseRequest": {
          "numberOfRepeatsAllowed": 1
        },
        "subject": {
          "reference": "Patient/f0094322-549c-1828-1f7d-27b001cf4edb"
        },
        "medicationReference": {
          "reference": "Medication/0287ecc9-adbe-520e-c39c-7524ef4ba7a1"
        },
        "requester": {
          "reference": "Practitioner/3bf9c991-c193-97f6-1676-3d4bbb689b36"
        }
      },
      "request": {
        "method": "PUT",
        "url": "MedicationRequest/8bb38a1b-33ea-901f-c294-bde15a3c3350"
      }
    },
    {
      "fullUrl": "urn:uuid:61437eaa-c301-07b4-8a61-4a49fdbcc3d1",
      "resource": {
        "resourceType": "MedicationStatement",
        "id": "61437eaa-c301-07b4-8a61-4a49fdbcc3d1",
        "identifier": [
          {
            "system": "urn:oid:1.2.840.113619.21.1.139060385287897942.9",
            "value": "MedicationStatement/1540825668005310",
            "assigner": {
              "display": " API Resource Identifier"
            }
          }
        ],
        "status": "active",
        "effectivePeriod": {
          "start": "2009-12-22T00:00:00-06:00"
        },
        "subject": {
          "reference": "Patient/f0094322-549c-1828-1f7d-27b001cf4edb"
        },
        "medicationReference": {
          "reference": "Medication/d874d4a9-ca46-0a34-c36c-0583a7cc50ae"
        }
      },
      "request": {
        "method": "PUT",
        "url": "MedicationStatement/61437eaa-c301-07b4-8a61-4a49fdbcc3d1"
      }
    },
    {
      "fullUrl": "urn:uuid:d874d4a9-ca46-0a34-c36c-0583a7cc50ae",
      "resource": {
        "resourceType": "Medication",
        "id": "d874d4a9-ca46-0a34-c36c-0583a7cc50ae",
        "code": {
          "coding": [
            {
              "code": "828555",
              "system": "http://www.nlm.nih.gov/research/umls/rxnorm",
              "display": "ACETAMINOPHEN"
            },
            {
              "code": "22571",
              "system": "2.16.840.1.113883.6.253"
            },
            {
              "code": "64200010001840",
              "system": "2.16.840.1.113883.6.68"
            },
            {
              "code": "5",
              "system": "1.2.840.113619.21.100.12.998"
            },
            {
              "code": "4264",
              "system": "1.2.840.113619.21.100.12.999"
            },
            {
              "code": "00045012304",
              "system": "2.16.840.1.113883.6.69"
            }
          ],
          "text": "TYLENOL CHILDRENS (ACETAMINOPHEN) 160 MG/5ML SUSP"
        }
      },
      "request": {
        "method": "PUT",
        "url": "Medication/d874d4a9-ca46-0a34-c36c-0583a7cc50ae"
      }
    },
    {
      "fullUrl": "urn:uuid:7c18df77-c87e-b402-43a4-48366c144252",
      "resource": {
        "resourceType": "MedicationRequest",
        "id": "7c18df77-c87e-b402-43a4-48366c144252",
        "identifier": [
          {
            "system": "urn:oid:1.2.840.113619.21.1.139060385287897942.9",
            "value": "MedicationOrder/1577115570154840",
            "assigner": {
              "display": " API Resource Identifier"
            }
          }
        ],
        "status": "completed",
        "intent": "order",
        "dispenseRequest": {
          "numberOfRepeatsAllowed": 0
        },
        "subject": {
          "reference": "Patient/f0094322-549c-1828-1f7d-27b001cf4edb"
        },
        "medicationReference": {
          "reference": "Medication/d874d4a9-ca46-0a34-c36c-0583a7cc50ae"
        },
        "requester": {
          "reference": "Practitioner/3bf9c991-c193-97f6-1676-3d4bbb689b36"
        }
      },
      "request": {
        "method": "PUT",
        "url": "MedicationRequest/7c18df77-c87e-b402-43a4-48366c144252"
      }
    },
    {
      "fullUrl": "urn:uuid:c3a9048e-4e2a-b1e3-21cb-76ca6076593b",
      "resource": {
        "resourceType": "MedicationStatement",
        "id": "c3a9048e-4e2a-b1e3-21cb-76ca6076593b",
        "identifier": [
          {
            "system": "urn:oid:1.2.840.113619.21.1.139060385287897942.9",
            "value": "MedicationStatement/1540825638005310",
            "assigner": {
              "display": " API Resource Identifier"
            }
          }
        ],
        "status": "active",
        "effectivePeriod": {
          "start": "2009-12-22T00:00:00-06:00"
        },
        "subject": {
          "reference": "Patient/f0094322-549c-1828-1f7d-27b001cf4edb"
        },
        "medicationReference": {
          "reference": "Medication/a513c669-2975-2fe1-5cf3-bd6bed07e6f9"
        }
      },
      "request": {
        "method": "PUT",
        "url": "MedicationStatement/c3a9048e-4e2a-b1e3-21cb-76ca6076593b"
      }
    },
    {
      "fullUrl": "urn:uuid:a513c669-2975-2fe1-5cf3-bd6bed07e6f9",
      "resource": {
        "resourceType": "Medication",
        "id": "a513c669-2975-2fe1-5cf3-bd6bed07e6f9",
        "code": {
          "coding": [
            {
              "system": "1.2.840.113619.21.1.139060385287897942.9",
              "display": "DIPHENHYDRAMINE HCL 12.5 MG/5ML SYRP"
            }
          ],
          "text": "DIPHENHYDRAMINE HCL 12.5 MG/5ML SYRP"
        }
      },
      "request": {
        "method": "PUT",
        "url": "Medication/a513c669-2975-2fe1-5cf3-bd6bed07e6f9"
      }
    },
    {
      "fullUrl": "urn:uuid:98d1f8c7-e212-3a62-e3a2-66f3ee4d3b7c",
      "resource": {
        "resourceType": "MedicationRequest",
        "id": "98d1f8c7-e212-3a62-e3a2-66f3ee4d3b7c",
        "identifier": [
          {
            "system": "urn:oid:1.2.840.113619.21.1.139060385287897942.9",
            "value": "MedicationOrder/1577115540154840",
            "assigner": {
              "display": " API Resource Identifier"
            }
          }
        ],
        "status": "completed",
        "intent": "order",
        "dispenseRequest": {
          "numberOfRepeatsAllowed": 0
        },
        "subject": {
          "reference": "Patient/f0094322-549c-1828-1f7d-27b001cf4edb"
        },
        "medicationReference": {
          "reference": "Medication/a513c669-2975-2fe1-5cf3-bd6bed07e6f9"
        },
        "requester": {
          "reference": "Practitioner/3bf9c991-c193-97f6-1676-3d4bbb689b36"
        }
      },
      "request": {
        "method": "PUT",
        "url": "MedicationRequest/98d1f8c7-e212-3a62-e3a2-66f3ee4d3b7c"
      }
    },
    {
      "fullUrl": "urn:uuid:7fd1974c-628f-5b41-7ffd-9b0821a103f4",
      "resource": {
        "resourceType": "MedicationStatement",
        "id": "7fd1974c-628f-5b41-7ffd-9b0821a103f4",
        "identifier": [
          {
            "system": "urn:oid:1.2.840.113619.21.1.139060385287897942.9",
            "value": "MedicationStatement/1526400216004500",
            "assigner": {
              "display": " API Resource Identifier"
            }
          }
        ],
        "status": "active",
        "effectivePeriod": {
          "start": "2008-05-14T00:00:00-05:00"
        },
        "subject": {
          "reference": "Patient/f0094322-549c-1828-1f7d-27b001cf4edb"
        },
        "medicationReference": {
          "reference": "Medication/4dac3a8b-e73e-f957-0623-75e20221014a"
        }
      },
      "request": {
        "method": "PUT",
        "url": "MedicationStatement/7fd1974c-628f-5b41-7ffd-9b0821a103f4"
      }
    },
    {
      "fullUrl": "urn:uuid:4dac3a8b-e73e-f957-0623-75e20221014a",
      "resource": {
        "resourceType": "Medication",
        "id": "4dac3a8b-e73e-f957-0623-75e20221014a",
        "code": {
          "coding": [
            {
              "system": "1.2.840.113619.21.1.139060385287897942.9",
              "display": "NASACORT AQ 55 MCG/ACT NASAL AEROSOL"
            }
          ],
          "text": "NASACORT AQ 55 MCG/ACT NASAL AEROSOL"
        }
      },
      "request": {
        "method": "PUT",
        "url": "Medication/4dac3a8b-e73e-f957-0623-75e20221014a"
      }
    },
    {
      "fullUrl": "urn:uuid:04897283-aba8-cf69-4e5e-9a734bcec0ce",
      "resource": {
        "resourceType": "MedicationRequest",
        "id": "04897283-aba8-cf69-4e5e-9a734bcec0ce",
        "identifier": [
          {
            "system": "urn:oid:1.2.840.113619.21.1.139060385287897942.9",
            "value": "MedicationOrder/1526400216154500",
            "assigner": {
              "display": " API Resource Identifier"
            }
          }
        ],
        "status": "completed",
        "intent": "order",
        "subject": {
          "reference": "Patient/f0094322-549c-1828-1f7d-27b001cf4edb"
        },
        "medicationReference": {
          "reference": "Medication/4dac3a8b-e73e-f957-0623-75e20221014a"
        },
        "requester": {
          "reference": "Practitioner/fd90dfc0-b6fb-08fc-21fe-873f2e4d41ab"
        }
      },
      "request": {
        "method": "PUT",
        "url": "MedicationRequest/04897283-aba8-cf69-4e5e-9a734bcec0ce"
      }
    },
    {
      "fullUrl": "urn:uuid:fd90dfc0-b6fb-08fc-21fe-873f2e4d41ab",
      "resource": {
        "resourceType": "Practitioner",
        "id": "fd90dfc0-b6fb-08fc-21fe-873f2e4d41ab",
        "meta": {
          "profile": [
            "http://hl7.org/fhir/us/core/StructureDefinition/us-core-practitioner"
          ]
        },
        "identifier": [
          {
            "system": "urn:oid:1.2.840.113619.21.1.139060385287897942.2.2",
            "value": "1645445284000280",
            "assigner": {
              "display": " Providers by PVID"
            }
          },
          {
            "system": "urn:oid:1.2.840.113619.21.1.139060385287897942.2.1",
            "value": "28",
            "assigner": {
              "display": " Providers by DoctorFacility"
            }
          },
          {
            "system": "http://hl7.org/fhir/sid/us-npi",
            "value": "1346258563",
            "assigner": {
              "display": "US National Provider Identifiers"
            }
          },
          {
            "system": "urn:oid:2.16.840.1.113883.4.2",
            "value": "363197647",
            "assigner": {
              "display": "Federal Tax Identifier"
            }
          }
        ],
        "name": [
          {
            "family": "Cha-Kim",
            "given": [
              "Jenny"
            ]
          }
        ],
        "address": [
          {
            "line": [
              "Komed Homan Health Center",
              "4259 S Berkeley Avenue"
            ],
            "city": "Chicago",
            "state": "IL",
            "postalCode": "60653"
          }
        ],
        "telecom": [
          {
            "system": "phone",
            "value": "7732687600",
            "use": "work"
          },
          {
            "system": "phone",
            "value": "7732689088",
            "use": "mobile"
          }
        ]
      },
      "request": {
        "method": "PUT",
        "url": "Practitioner/fd90dfc0-b6fb-08fc-21fe-873f2e4d41ab"
      }
    },
    {
      "fullUrl": "urn:uuid:4357c53b-db1b-ab33-d446-600dd374bf8d",
      "resource": {
        "resourceType": "MedicationStatement",
        "id": "4357c53b-db1b-ab33-d446-600dd374bf8d",
        "identifier": [
          {
            "system": "urn:oid:1.2.840.113619.21.1.139060385287897942.9",
            "value": "MedicationStatement/1510666606002630",
            "assigner": {
              "display": " API Resource Identifier"
            }
          }
        ],
        "status": "active",
        "effectivePeriod": {
          "start": "2005-10-20T00:00:00-05:00"
        },
        "subject": {
          "reference": "Patient/f0094322-549c-1828-1f7d-27b001cf4edb"
        },
        "medicationReference": {
          "reference": "Medication/2d66da8f-0c41-5e98-0750-cd1fae42ae13"
        }
      },
      "request": {
        "method": "PUT",
        "url": "MedicationStatement/4357c53b-db1b-ab33-d446-600dd374bf8d"
      }
    },
    {
      "fullUrl": "urn:uuid:2d66da8f-0c41-5e98-0750-cd1fae42ae13",
      "resource": {
        "resourceType": "Medication",
        "id": "2d66da8f-0c41-5e98-0750-cd1fae42ae13",
        "code": {
          "coding": [
            {
              "system": "1.2.840.113619.21.1.139060385287897942.9",
              "display": "TRITAL DM 10-4-15 MG/5ML LIQD"
            }
          ],
          "text": "TRITAL DM 10-4-15 MG/5ML LIQD"
        }
      },
      "request": {
        "method": "PUT",
        "url": "Medication/2d66da8f-0c41-5e98-0750-cd1fae42ae13"
      }
    },
    {
      "fullUrl": "urn:uuid:947221ef-3cc5-5717-3724-dc1895f80e0f",
      "resource": {
        "resourceType": "Condition",
        "id": "947221ef-3cc5-5717-3724-dc1895f80e0f",
        "identifier": [
          {
            "system": "urn:ietf:rfc:3986",
            "value": "urn:oid:1.2.840.113619.21.1.139060385287897942.10.1591243503933.470670"
          }
        ],
        "category": [
          {
            "coding": [
              {
                "code": "problem-item-list",
                "display": "Problem List Item",
                "system": "http://hl7.org/fhir/us/core/ValueSet/us-core-condition-category"
              }
            ]
          }
        ],
        "code": {
          "coding": [
            {
              "code": "55607006",
              "system": "http://snomed.info/sct",
              "display": "Problem"
            }
          ]
        },
        "subject": {
          "reference": "Patient/f0094322-549c-1828-1f7d-27b001cf4edb"
        }
      },
      "request": {
        "method": "PUT",
        "url": "Condition/947221ef-3cc5-5717-3724-dc1895f80e0f"
      }
    },
    {
      "fullUrl": "urn:uuid:a236ff39-85f7-6f0a-2507-e291d19ddb1e",
      "resource": {
        "resourceType": "DiagnosticReport",
        "id": "a236ff39-85f7-6f0a-2507-e291d19ddb1e",
        "identifier": [
          {
            "system": "urn:oid:1.2.840.113619.21.1.139060385287897942.9",
            "value": "Observation/1904915855720020",
            "assigner": {
              "display": "31913-41995-12761042 API Resource Identifier"
            }
          }
        ],
        "status": "final",
        "code": {
          "coding": [
            {
              "code": "30954-2",
              "system": "http://loinc.org",
              "display": "RESULTS"
            }
          ]
        },
        "subject": {
          "reference": "Patient/f0094322-549c-1828-1f7d-27b001cf4edb"
        },
        "result": [
          {
            "reference": "Observation/3116dbd9-a609-b697-b8e4-0dd62caee50a"
          },
          {
            "reference": "Observation/7612e5d3-57dd-1aa4-06a5-5e1ea1090689"
          }
        ]
      },
      "request": {
        "method": "PUT",
        "url": "DiagnosticReport/a236ff39-85f7-6f0a-2507-e291d19ddb1e"
      }
    },
    {
      "fullUrl": "urn:uuid:3116dbd9-a609-b697-b8e4-0dd62caee50a",
      "resource": {
        "resourceType": "Observation",
        "id": "3116dbd9-a609-b697-b8e4-0dd62caee50a",
        "meta": {
          "profile": [
            "http://hl7.org/fhir/us/ecr/StructureDefinition/us-ph-lab-result-observation"
          ]
        },
        "identifier": [
          {
            "system": "urn:oid:1.2.840.113619.21.1.139060385287897942.9",
            "value": "Observation/1904915855720020",
            "assigner": {
              "display": "31913-41995-12761042 API Resource Identifier"
            }
          }
        ],
        "category": [
          {
            "coding": [
              {
                "system": "http://terminology.hl7.org/CodeSystem/observation-category",
                "code": "laboratory"
              }
            ]
          }
        ],
        "status": "final",
        "code": {
          "coding": [
            {
              "code": "24111-7",
              "system": "http://loinc.org",
              "display": "Neisseria gonorrhoeae DNA [Presence] in Unspecified specimen by NAA with probe detection"
            },
            {
              "code": "2719",
              "system": "1.2.840.113619.21.100.12.1053.139060385287897942",
              "display": "GC DNA PROBE"
            }
          ],
          "text": "Neisseria gonorrhoeae DNA probe"
        },
        "effectiveDateTime": "2020-05-09T10:24:00-05:00",
        "valueString": "Positive",
        "referenceRange": [
          {
            "text": "Negative"
          }
        ],
        "interpretation": [
          {
            "coding": [
              {
                "code": "A",
                "system": "http://terminology.hl7.org/CodeSystem/v3-ObservationInterpretation",
                "display": "Abnormal"
              }
            ],
            "text": "Abnormal"
          }
        ],
        "subject": {
          "reference": "Patient/f0094322-549c-1828-1f7d-27b001cf4edb"
        }
      },
      "request": {
        "method": "PUT",
        "url": "Observation/3116dbd9-a609-b697-b8e4-0dd62caee50a"
      }
    },
    {
      "fullUrl": "urn:uuid:7612e5d3-57dd-1aa4-06a5-5e1ea1090689",
      "resource": {
        "resourceType": "Observation",
        "id": "7612e5d3-57dd-1aa4-06a5-5e1ea1090689",
        "meta": {
          "profile": [
            "http://hl7.org/fhir/us/ecr/StructureDefinition/us-ph-lab-result-observation"
          ]
        },
        "identifier": [
          {
            "system": "urn:oid:1.2.840.113619.21.1.139060385287897942.9",
            "value": "Observation/1904915855720000",
            "assigner": {
              "display": "31913-41995-12761042 API Resource Identifier"
            }
          }
        ],
        "category": [
          {
            "coding": [
              {
                "system": "http://terminology.hl7.org/CodeSystem/observation-category",
                "code": "laboratory"
              }
            ]
          }
        ],
        "status": "final",
        "code": {
          "coding": [
            {
              "code": "21613-5",
              "system": "http://loinc.org",
              "display": "Chlamydia trachomatis DNA [Presence] in Unspecified specimen by NAA with probe detection"
            },
            {
              "code": "14722",
              "system": "1.2.840.113619.21.100.12.1053.139060385287897942",
              "display": "CHLAMYD DNA"
            }
          ],
          "text": "chlamydia DNA probe"
        },
        "effectiveDateTime": "2020-05-09T10:24:00-05:00",
        "valueString": "Positive",
        "referenceRange": [
          {
            "text": "Negative"
          }
        ],
        "interpretation": [
          {
            "coding": [
              {
                "code": "A",
                "system": "http://terminology.hl7.org/CodeSystem/v3-ObservationInterpretation",
                "display": "Abnormal"
              }
            ],
            "text": "Abnormal"
          }
        ],
        "subject": {
          "reference": "Patient/f0094322-549c-1828-1f7d-27b001cf4edb"
        }
      },
      "request": {
        "method": "PUT",
        "url": "Observation/7612e5d3-57dd-1aa4-06a5-5e1ea1090689"
      }
    },
    {
      "fullUrl": "urn:uuid:e5806bd7-cd5e-3528-48fd-5ca2a5c4ae60",
      "resource": {
        "resourceType": "Observation",
        "id": "e5806bd7-cd5e-3528-48fd-5ca2a5c4ae60",
        "meta": {
          "profile": [
            "http://hl7.org/fhir/StructureDefinition/Observation"
          ]
        },
        "identifier": [
          {
            "system": "urn:oid:1.2.840.113619.21.1.139060385287897942.9",
            "value": "Observation/1904987180628880",
            "assigner": {
              "display": "31913-41995-12761042 API Resource Identifier"
            }
          }
        ],
        "category": [
          {
            "coding": [
              {
                "system": "http://terminology.hl7.org/CodeSystem/observation-category",
                "code": "social-history"
              }
            ]
          }
        ],
        "status": "final",
        "code": {
          "coding": [
            {
              "code": "229819007",
              "system": "http://snomed.info/sct",
              "display": "Tobacco use and exposure"
            },
            {
              "code": "2739",
              "system": "1.2.840.113619.21.100.12.1053.139060385287897942",
              "display": "PAS CIG SMOK"
            }
          ],
          "text": "passive cigarette smoke exposure"
        },
        "effectiveDateTime": "2020-05-13T11:02:23-05:00",
        "valueString": "Yes",
        "subject": {
          "reference": "Patient/f0094322-549c-1828-1f7d-27b001cf4edb"
        }
      },
      "request": {
        "method": "PUT",
        "url": "Observation/e5806bd7-cd5e-3528-48fd-5ca2a5c4ae60"
      }
    },
    {
      "fullUrl": "urn:uuid:de1234fb-675c-1087-a789-073307fde3fc",
      "resource": {
        "resourceType": "Observation",
        "id": "de1234fb-675c-1087-a789-073307fde3fc",
        "meta": {
          "profile": [
            "http://hl7.org/fhir/StructureDefinition/Observation"
          ]
        },
        "identifier": [
          {
            "system": "urn:oid:1.2.840.113619.21.1.139060385287897942.9",
            "value": "Observation/1904987180628840",
            "assigner": {
              "display": "31913-41995-12761042 API Resource Identifier"
            }
          }
        ],
        "category": [
          {
            "coding": [
              {
                "system": "http://terminology.hl7.org/CodeSystem/observation-category",
                "code": "social-history"
              }
            ]
          }
        ],
        "status": "final",
        "code": {
          "coding": [
            {
              "code": "502889",
              "system": "1.2.840.113619.21.100.12.1053.139060385287897942",
              "display": "ASSMTHLTLTRY"
            },
            {
              "system": "1.2.840.113619.21.100.12.1053.139060385287897942"
            }
          ],
          "text": "assessment of health literacy (NCQA PCMH 2014 Standards, 3C10)"
        },
        "effectiveDateTime": "2020-05-13T11:02:23-05:00",
        "valueString": "Adequate",
        "subject": {
          "reference": "Patient/f0094322-549c-1828-1f7d-27b001cf4edb"
        }
      },
      "request": {
        "method": "PUT",
        "url": "Observation/de1234fb-675c-1087-a789-073307fde3fc"
      }
    },
    {
      "fullUrl": "urn:uuid:8e8941a1-ab50-fd88-a690-939a7d2e92de",
      "resource": {
        "resourceType": "Observation",
        "id": "8e8941a1-ab50-fd88-a690-939a7d2e92de",
        "meta": {
          "profile": [
            "http://hl7.org/fhir/StructureDefinition/Observation"
          ]
        },
        "identifier": [
          {
            "system": "urn:oid:1.2.840.113619.21.1.139060385287897942.9",
            "value": "Observation/1904987151626900",
            "assigner": {
              "display": "31913-41995-12761042 API Resource Identifier"
            }
          }
        ],
        "category": [
          {
            "coding": [
              {
                "system": "http://terminology.hl7.org/CodeSystem/observation-category",
                "code": "social-history"
              }
            ]
          }
        ],
        "status": "final",
        "code": {
          "coding": [
            {
              "code": "418494",
              "system": "1.2.840.113619.21.100.12.1053.139060385287897942",
              "display": "CHANCEPREGN"
            },
            {
              "system": "1.2.840.113619.21.100.12.1053.139060385287897942"
            }
          ],
          "text": "is there any chance that you could be pregnant?"
        },
        "effectiveDateTime": "2020-05-13T11:02:23-05:00",
        "valueString": "No",
        "subject": {
          "reference": "Patient/f0094322-549c-1828-1f7d-27b001cf4edb"
        }
      },
      "request": {
        "method": "PUT",
        "url": "Observation/8e8941a1-ab50-fd88-a690-939a7d2e92de"
      }
    },
    {
      "fullUrl": "urn:uuid:d7a48b3e-4ac6-698f-ccc3-4aa8ec51089e",
      "resource": {
        "resourceType": "Observation",
        "id": "d7a48b3e-4ac6-698f-ccc3-4aa8ec51089e",
        "meta": {
          "profile": [
            "http://hl7.org/fhir/StructureDefinition/Observation"
          ]
        },
        "identifier": [
          {
            "system": "urn:oid:1.2.840.113619.21.1.139060385287897942.9",
            "value": "Observation/1904987151626880",
            "assigner": {
              "display": "31913-41995-12761042 API Resource Identifier"
            }
          }
        ],
        "category": [
          {
            "coding": [
              {
                "system": "http://terminology.hl7.org/CodeSystem/observation-category",
                "code": "social-history"
              }
            ]
          }
        ],
        "status": "final",
        "code": {
          "coding": [
            {
              "code": "549318",
              "system": "1.2.840.113619.21.100.12.1053.139060385287897942",
              "display": "VAPE_USE"
            },
            {
              "system": "1.2.840.113619.21.100.12.1053.139060385287897942"
            }
          ],
          "text": "if the patient is using/has used a vaping item, Current, Former, Never Used, Not asked"
        },
        "effectiveDateTime": "2020-05-13T11:02:23-05:00",
        "valueString": "No",
        "subject": {
          "reference": "Patient/f0094322-549c-1828-1f7d-27b001cf4edb"
        }
      },
      "request": {
        "method": "PUT",
        "url": "Observation/d7a48b3e-4ac6-698f-ccc3-4aa8ec51089e"
      }
    },
    {
      "fullUrl": "urn:uuid:ac821d97-a898-909f-de49-86fab91d3280",
      "resource": {
        "resourceType": "Observation",
        "id": "ac821d97-a898-909f-de49-86fab91d3280",
        "meta": {
          "profile": [
            "http://hl7.org/fhir/StructureDefinition/Observation"
          ]
        },
        "identifier": [
          {
            "system": "urn:oid:1.2.840.113619.21.1.139060385287897942.9",
            "value": "Observation/1904987151626840",
            "assigner": {
              "display": "31913-41995-12761042 API Resource Identifier"
            }
          }
        ],
        "category": [
          {
            "coding": [
              {
                "system": "http://terminology.hl7.org/CodeSystem/observation-category",
                "code": "social-history"
              }
            ]
          }
        ],
        "status": "final",
        "code": {
          "coding": [
            {
              "code": "72166-2",
              "system": "http://loinc.org",
              "display": "Tobacco smoking status NHIS"
            },
            {
              "code": "11366-2",
              "system": "http://loinc.org",
              "display": "History of tobacco use Narrative"
            },
            {
              "code": "229819007",
              "system": "http://snomed.info/sct",
              "display": "Tobacco use and exposure"
            },
            {
              "code": "300015",
              "system": "1.2.840.113619.21.100.12.1053.139060385287897942",
              "display": "SMOK STATUS"
            }
          ],
          "text": "smoking status"
        },
        "effectiveDateTime": "2020-05-13T11:02:23-05:00",
        "valueCodeableConcept": {
          "coding": [
            {
              "code": "266919005",
              "system": "http://snomed.info/sct",
              "display": "Never smoked tobacco (finding)"
            },
            {
              "code": "72166-2",
              "system": "http://loinc.org",
              "display": "Tobacco smoking status NHIS"
            }
          ],
          "text": "never smoker"
        },
        "subject": {
          "reference": "Patient/f0094322-549c-1828-1f7d-27b001cf4edb"
        }
      },
      "request": {
        "method": "PUT",
        "url": "Observation/ac821d97-a898-909f-de49-86fab91d3280"
      }
    },
    {
      "fullUrl": "urn:uuid:1cc85389-d053-9b92-a2e9-cf5458cc00bb",
      "resource": {
        "resourceType": "Observation",
        "id": "1cc85389-d053-9b92-a2e9-cf5458cc00bb",
        "meta": {
          "profile": [
            "http://hl7.org/fhir/StructureDefinition/Observation"
          ]
        },
        "identifier": [
          {
            "system": "urn:oid:1.2.840.113619.21.1.139060385287897942.9",
            "value": "Observation/1904987068622000",
            "assigner": {
              "display": "31913-41995-12761042 API Resource Identifier"
            }
          }
        ],
        "category": [
          {
            "coding": [
              {
                "system": "http://terminology.hl7.org/CodeSystem/observation-category",
                "code": "social-history"
              }
            ]
          }
        ],
        "status": "final",
        "code": {
          "coding": [
            {
              "code": "304549008",
              "system": "http://snomed.info/sct",
              "display": "Giving encouragement to exercise (procedure)"
            },
            {
              "code": "156247",
              "system": "1.2.840.113619.21.100.12.1053.139060385287897942",
              "display": "EXERPRG REF"
            }
          ],
          "text": "Exercise Program Referral"
        },
        "effectiveDateTime": "2020-05-13T11:02:23-05:00",
        "valueString": "T",
        "subject": {
          "reference": "Patient/f0094322-549c-1828-1f7d-27b001cf4edb"
        }
      },
      "request": {
        "method": "PUT",
        "url": "Observation/1cc85389-d053-9b92-a2e9-cf5458cc00bb"
      }
    },
    {
      "fullUrl": "urn:uuid:f8cc7cfb-bbc7-75d3-aeb8-6a5017918197",
      "resource": {
        "resourceType": "Observation",
        "id": "f8cc7cfb-bbc7-75d3-aeb8-6a5017918197",
        "meta": {
          "profile": [
            "http://hl7.org/fhir/StructureDefinition/Observation"
          ]
        },
        "identifier": [
          {
            "system": "urn:oid:1.2.840.113619.21.1.139060385287897942.9",
            "value": "Observation/1904987068621980",
            "assigner": {
              "display": "31913-41995-12761042 API Resource Identifier"
            }
          }
        ],
        "category": [
          {
            "coding": [
              {
                "system": "http://terminology.hl7.org/CodeSystem/observation-category",
                "code": "social-history"
              }
            ]
          }
        ],
        "status": "final",
        "code": {
          "coding": [
            {
              "code": "156251",
              "system": "1.2.840.113619.21.100.12.1053.139060385287897942",
              "display": "WGTMGMTCOUNS"
            },
            {
              "system": "1.2.840.113619.21.100.12.1053.139060385287897942"
            }
          ],
          "text": "Weight Management Counseling Provided"
        },
        "effectiveDateTime": "2020-05-13T11:02:23-05:00",
        "valueString": "T",
        "subject": {
          "reference": "Patient/f0094322-549c-1828-1f7d-27b001cf4edb"
        }
      },
      "request": {
        "method": "PUT",
        "url": "Observation/f8cc7cfb-bbc7-75d3-aeb8-6a5017918197"
      }
    },
    {
      "fullUrl": "urn:uuid:081cbabb-c155-21d5-4fb5-a72564db53ee",
      "resource": {
        "resourceType": "Observation",
        "id": "081cbabb-c155-21d5-4fb5-a72564db53ee",
        "meta": {
          "profile": [
            "http://hl7.org/fhir/StructureDefinition/Observation"
          ]
        },
        "identifier": [
          {
            "system": "urn:oid:1.2.840.113619.21.1.139060385287897942.9",
            "value": "Observation/1904987068621960",
            "assigner": {
              "display": "31913-41995-12761042 API Resource Identifier"
            }
          }
        ],
        "category": [
          {
            "coding": [
              {
                "system": "http://terminology.hl7.org/CodeSystem/observation-category",
                "code": "social-history"
              }
            ]
          }
        ],
        "status": "final",
        "code": {
          "coding": [
            {
              "code": "241375",
              "system": "1.2.840.113619.21.100.12.1053.139060385287897942",
              "display": "NUTRITIONIVN"
            },
            {
              "system": "1.2.840.113619.21.100.12.1053.139060385287897942"
            }
          ],
          "text": "Nutrition intervention"
        },
        "effectiveDateTime": "2020-05-13T11:02:23-05:00",
        "valueString": "T",
        "subject": {
          "reference": "Patient/f0094322-549c-1828-1f7d-27b001cf4edb"
        }
      },
      "request": {
        "method": "PUT",
        "url": "Observation/081cbabb-c155-21d5-4fb5-a72564db53ee"
      }
    },
    {
      "fullUrl": "urn:uuid:2c5d377c-a681-68cb-2523-7646e957569e",
      "resource": {
        "resourceType": "Observation",
        "id": "2c5d377c-a681-68cb-2523-7646e957569e",
        "meta": {
          "profile": [
            "http://hl7.org/fhir/StructureDefinition/Observation"
          ]
        },
        "identifier": [
          {
            "system": "urn:oid:1.2.840.113619.21.1.139060385287897942.9",
            "value": "Observation/1904635986268370",
            "assigner": {
              "display": "31913-41995-12761042 API Resource Identifier"
            }
          }
        ],
        "category": [
          {
            "coding": [
              {
                "system": "http://terminology.hl7.org/CodeSystem/observation-category",
                "code": "social-history"
              }
            ]
          }
        ],
        "status": "final",
        "code": {
          "coding": [
            {
              "code": "229819007",
              "system": "http://snomed.info/sct",
              "display": "Tobacco use and exposure"
            },
            {
              "code": "2739",
              "system": "1.2.840.113619.21.100.12.1053.139060385287897942",
              "display": "PAS CIG SMOK"
            }
          ],
          "text": "passive cigarette smoke exposure"
        },
        "effectiveDateTime": "2020-05-09T09:28:09-05:00",
        "valueString": "No",
        "subject": {
          "reference": "Patient/f0094322-549c-1828-1f7d-27b001cf4edb"
        }
      },
      "request": {
        "method": "PUT",
        "url": "Observation/2c5d377c-a681-68cb-2523-7646e957569e"
      }
    },
    {
      "fullUrl": "urn:uuid:4542c0ee-b884-9eff-43d4-9f90a5f0cf31",
      "resource": {
        "resourceType": "Observation",
        "id": "4542c0ee-b884-9eff-43d4-9f90a5f0cf31",
        "meta": {
          "profile": [
            "http://hl7.org/fhir/StructureDefinition/Observation"
          ]
        },
        "identifier": [
          {
            "system": "urn:oid:1.2.840.113619.21.1.139060385287897942.9",
            "value": "Observation/1904635986268350",
            "assigner": {
              "display": "31913-41995-12761042 API Resource Identifier"
            }
          }
        ],
        "category": [
          {
            "coding": [
              {
                "system": "http://terminology.hl7.org/CodeSystem/observation-category",
                "code": "social-history"
              }
            ]
          }
        ],
        "status": "final",
        "code": {
          "coding": [
            {
              "code": "502889",
              "system": "1.2.840.113619.21.100.12.1053.139060385287897942",
              "display": "ASSMTHLTLTRY"
            },
            {
              "system": "1.2.840.113619.21.100.12.1053.139060385287897942"
            }
          ],
          "text": "assessment of health literacy (NCQA PCMH 2014 Standards, 3C10)"
        },
        "effectiveDateTime": "2020-05-09T09:28:09-05:00",
        "valueString": "Adequate",
        "subject": {
          "reference": "Patient/f0094322-549c-1828-1f7d-27b001cf4edb"
        }
      },
      "request": {
        "method": "PUT",
        "url": "Observation/4542c0ee-b884-9eff-43d4-9f90a5f0cf31"
      }
    },
    {
      "fullUrl": "urn:uuid:71606fc9-dcc3-f118-4e04-55a75dad961e",
      "resource": {
        "resourceType": "Observation",
        "id": "71606fc9-dcc3-f118-4e04-55a75dad961e",
        "meta": {
          "profile": [
            "http://hl7.org/fhir/StructureDefinition/Observation"
          ]
        },
        "identifier": [
          {
            "system": "urn:oid:1.2.840.113619.21.1.139060385287897942.9",
            "value": "Observation/1904635966267710",
            "assigner": {
              "display": "31913-41995-12761042 API Resource Identifier"
            }
          }
        ],
        "category": [
          {
            "coding": [
              {
                "system": "http://terminology.hl7.org/CodeSystem/observation-category",
                "code": "social-history"
              }
            ]
          }
        ],
        "status": "final",
        "code": {
          "coding": [
            {
              "code": "418494",
              "system": "1.2.840.113619.21.100.12.1053.139060385287897942",
              "display": "CHANCEPREGN"
            },
            {
              "system": "1.2.840.113619.21.100.12.1053.139060385287897942"
            }
          ],
          "text": "is there any chance that you could be pregnant?"
        },
        "effectiveDateTime": "2020-05-09T09:28:09-05:00",
        "valueString": "Yes",
        "subject": {
          "reference": "Patient/f0094322-549c-1828-1f7d-27b001cf4edb"
        }
      },
      "request": {
        "method": "PUT",
        "url": "Observation/71606fc9-dcc3-f118-4e04-55a75dad961e"
      }
    },
    {
      "fullUrl": "urn:uuid:14be5382-3b0f-6e01-b642-fecb7492bfed",
      "resource": {
        "resourceType": "Observation",
        "id": "14be5382-3b0f-6e01-b642-fecb7492bfed",
        "meta": {
          "profile": [
            "http://hl7.org/fhir/StructureDefinition/Observation"
          ]
        },
        "identifier": [
          {
            "system": "urn:oid:1.2.840.113619.21.1.139060385287897942.9",
            "value": "Observation/1904635935267610",
            "assigner": {
              "display": "31913-41995-12761042 API Resource Identifier"
            }
          }
        ],
        "category": [
          {
            "coding": [
              {
                "system": "http://terminology.hl7.org/CodeSystem/observation-category",
                "code": "social-history"
              }
            ]
          }
        ],
        "status": "final",
        "code": {
          "coding": [
            {
              "code": "549318",
              "system": "1.2.840.113619.21.100.12.1053.139060385287897942",
              "display": "VAPE_USE"
            },
            {
              "system": "1.2.840.113619.21.100.12.1053.139060385287897942"
            }
          ],
          "text": "if the patient is using/has used a vaping item, Current, Former, Never Used, Not asked"
        },
        "effectiveDateTime": "2020-05-09T09:28:09-05:00",
        "valueString": "No",
        "subject": {
          "reference": "Patient/f0094322-549c-1828-1f7d-27b001cf4edb"
        }
      },
      "request": {
        "method": "PUT",
        "url": "Observation/14be5382-3b0f-6e01-b642-fecb7492bfed"
      }
    },
    {
      "fullUrl": "urn:uuid:9d19e66e-93cf-c7e6-f00c-54ef3a7c8240",
      "resource": {
        "resourceType": "Observation",
        "id": "9d19e66e-93cf-c7e6-f00c-54ef3a7c8240",
        "meta": {
          "profile": [
            "http://hl7.org/fhir/StructureDefinition/Observation"
          ]
        },
        "identifier": [
          {
            "system": "urn:oid:1.2.840.113619.21.1.139060385287897942.9",
            "value": "Observation/1904635935267590",
            "assigner": {
              "display": "31913-41995-12761042 API Resource Identifier"
            }
          }
        ],
        "category": [
          {
            "coding": [
              {
                "system": "http://terminology.hl7.org/CodeSystem/observation-category",
                "code": "social-history"
              }
            ]
          }
        ],
        "status": "final",
        "code": {
          "coding": [
            {
              "code": "72166-2",
              "system": "http://loinc.org",
              "display": "Tobacco smoking status NHIS"
            },
            {
              "code": "11366-2",
              "system": "http://loinc.org",
              "display": "History of tobacco use Narrative"
            },
            {
              "code": "229819007",
              "system": "http://snomed.info/sct",
              "display": "Tobacco use and exposure"
            },
            {
              "code": "300015",
              "system": "1.2.840.113619.21.100.12.1053.139060385287897942",
              "display": "SMOK STATUS"
            }
          ],
          "text": "smoking status"
        },
        "effectiveDateTime": "2020-05-09T09:28:09-05:00",
        "valueCodeableConcept": {
          "coding": [
            {
              "code": "266919005",
              "system": "http://snomed.info/sct",
              "display": "Never smoked tobacco (finding)"
            },
            {
              "code": "72166-2",
              "system": "http://loinc.org",
              "display": "Tobacco smoking status NHIS"
            }
          ],
          "text": "never smoker"
        },
        "subject": {
          "reference": "Patient/f0094322-549c-1828-1f7d-27b001cf4edb"
        }
      },
      "request": {
        "method": "PUT",
        "url": "Observation/9d19e66e-93cf-c7e6-f00c-54ef3a7c8240"
      }
    },
    {
      "fullUrl": "urn:uuid:084cc4f4-9bad-dd2c-671d-5c9a6c9c61ea",
      "resource": {
        "resourceType": "Observation",
        "id": "084cc4f4-9bad-dd2c-671d-5c9a6c9c61ea",
        "meta": {
          "profile": [
            "http://hl7.org/fhir/StructureDefinition/Observation"
          ]
        },
        "identifier": [
          {
            "system": "urn:oid:1.2.840.113619.21.1.139060385287897942.9",
            "value": "Observation/1904635913266810",
            "assigner": {
              "display": "31913-41995-12761042 API Resource Identifier"
            }
          }
        ],
        "category": [
          {
            "coding": [
              {
                "system": "http://terminology.hl7.org/CodeSystem/observation-category",
                "code": "social-history"
              }
            ]
          }
        ],
        "status": "final",
        "code": {
          "coding": [
            {
              "code": "304549008",
              "system": "http://snomed.info/sct",
              "display": "Giving encouragement to exercise (procedure)"
            },
            {
              "code": "156247",
              "system": "1.2.840.113619.21.100.12.1053.139060385287897942",
              "display": "EXERPRG REF"
            }
          ],
          "text": "Exercise Program Referral"
        },
        "effectiveDateTime": "2020-05-09T09:28:09-05:00",
        "valueString": "T",
        "subject": {
          "reference": "Patient/f0094322-549c-1828-1f7d-27b001cf4edb"
        }
      },
      "request": {
        "method": "PUT",
        "url": "Observation/084cc4f4-9bad-dd2c-671d-5c9a6c9c61ea"
      }
    },
    {
      "fullUrl": "urn:uuid:7c95c0f3-505a-20a6-9af7-053221a1a0ac",
      "resource": {
        "resourceType": "Observation",
        "id": "7c95c0f3-505a-20a6-9af7-053221a1a0ac",
        "meta": {
          "profile": [
            "http://hl7.org/fhir/StructureDefinition/Observation"
          ]
        },
        "identifier": [
          {
            "system": "urn:oid:1.2.840.113619.21.1.139060385287897942.9",
            "value": "Observation/1904635913266790",
            "assigner": {
              "display": "31913-41995-12761042 API Resource Identifier"
            }
          }
        ],
        "category": [
          {
            "coding": [
              {
                "system": "http://terminology.hl7.org/CodeSystem/observation-category",
                "code": "social-history"
              }
            ]
          }
        ],
        "status": "final",
        "code": {
          "coding": [
            {
              "code": "156251",
              "system": "1.2.840.113619.21.100.12.1053.139060385287897942",
              "display": "WGTMGMTCOUNS"
            },
            {
              "system": "1.2.840.113619.21.100.12.1053.139060385287897942"
            }
          ],
          "text": "Weight Management Counseling Provided"
        },
        "effectiveDateTime": "2020-05-09T09:28:09-05:00",
        "valueString": "T",
        "subject": {
          "reference": "Patient/f0094322-549c-1828-1f7d-27b001cf4edb"
        }
      },
      "request": {
        "method": "PUT",
        "url": "Observation/7c95c0f3-505a-20a6-9af7-053221a1a0ac"
      }
    },
    {
      "fullUrl": "urn:uuid:121dd87a-ab6b-fac4-bb2d-a3ae2df91a74",
      "resource": {
        "resourceType": "Observation",
        "id": "121dd87a-ab6b-fac4-bb2d-a3ae2df91a74",
        "meta": {
          "profile": [
            "http://hl7.org/fhir/StructureDefinition/Observation"
          ]
        },
        "identifier": [
          {
            "system": "urn:oid:1.2.840.113619.21.1.139060385287897942.9",
            "value": "Observation/1904635913266770",
            "assigner": {
              "display": "31913-41995-12761042 API Resource Identifier"
            }
          }
        ],
        "category": [
          {
            "coding": [
              {
                "system": "http://terminology.hl7.org/CodeSystem/observation-category",
                "code": "social-history"
              }
            ]
          }
        ],
        "status": "final",
        "code": {
          "coding": [
            {
              "code": "241375",
              "system": "1.2.840.113619.21.100.12.1053.139060385287897942",
              "display": "NUTRITIONIVN"
            },
            {
              "system": "1.2.840.113619.21.100.12.1053.139060385287897942"
            }
          ],
          "text": "Nutrition intervention"
        },
        "effectiveDateTime": "2020-05-09T09:28:09-05:00",
        "valueString": "T",
        "subject": {
          "reference": "Patient/f0094322-549c-1828-1f7d-27b001cf4edb"
        }
      },
      "request": {
        "method": "PUT",
        "url": "Observation/121dd87a-ab6b-fac4-bb2d-a3ae2df91a74"
      }
    }
  ]
}
}