{
  "Status": "OK",
  "FhirResource": {
  "resourceType": "Bundle",
  "type": "batch",
  "entry": [
    {
      "fullUrl": "1906844699671520",
      "resource": {
        "resourceType": "Composition",
        "id": "1906844699671520",
        "meta": {
          "profile": [
            "http://hl7.org/fhir/us/ecr/StructureDefinition/eicr-composition"
          ]
        },
        "identifier": {
          "use": "official",
          "type": {
            "coding": [
              {
                "code": "55751-2",
                "system": "http://loinc.org",
                "display": "Initial Public Health Case Report"
              }
            ]
          }
        },
        "extension": [
          {
            "url": "http://hl7.org/fhir/StructureDefinition/composition-clinicaldocument-versionNumber"
          },
          {
            "url": "https://www.hl7.org/implement/standards/product_brief.cfm?product_id=436",
            "valueString": "2016-12-01"
          }
        ],
        "status": "final",
        "type": {
          "coding": [
            {
              "code": "55751-2",
              "system": "http://loinc.org",
              "display": "Initial Public Health Case Report"
            }
          ]
        },
        "date": "2020-06-03T23:05:03-05:00",
        "title": "Initial Public Health Case Report",
        "confidentiality": "N",
        "event": [
          {
            "period": {
              "start": "2020-06-03T23:05:03-05:00"
            }
          }
        ],
        "section": [
          {
            "id": "24ca0ef4-e8bd-b90c-315e-9f187f441c19",
            "title": "HISTORY OF PRESENT ILLNESS",
            "text": {
              "status": "generated",
              "div": "Done, Done, 11/28/2020, , use condoms with every sexual encounter , Std screening - New ·Instructions: You have been diagnosed today with a bacterial vaginal infectionPlease complete entire course of antibiotics, please refrain from drinking alcohol when taking oral medication.Remember to avoid harsh soaps, douches, vaginal washes, and sprays, as this could be contributing to your symptoms. If your symptoms don't resolve in after completion of medication please return to clinic for further screening., UTI - Comment Only ·Instructions: make sure to finish out antibioticsYou have been diagnosed with a urinary tract infection, please make sure to complete your full course of antibiotics. A sample of your urine has been sent to the lab for a urine culture which will determine what type of bacteria is causing your symptoms.If your symptoms don't resolve in 3 to 5 days, please follow up for further screening.Make sure to drink plenty of water, make sure to urinate after intercourse, and avoid holding your urine., brief (1-3 elements), Avery Ramsey is a 32 Years Old Male ( DOB 07/04/1987)report burning with urination and penile discharge for several dayswas diagnosed with an UTI 1 month ago and did not finish the antibioticsalso wants STD testingreports having unprotected sex with 1 partner , No, No, No, No, No, brief (1-3 elements), I called this patient today to initiate a telehealth appointment but there was no answer. The call went straight to voicemail. I left a voice message with my contact information at Komed Internal Medicine. I instructed the patient to call back as soon as possible. , DYSURIA - New will repeat sti, plus u/a/cx. advised increase fluids. no sex until results known. consider PrEP., pt's last STI testing was 1/24/20, all negative. c/o \"irritation\" in penile area, generally and with urination. no discharge. Sexually active w 2 partners since last test, both unprotected., No, No, No"
            },
            "code": {
              "coding": [
                {
                  "code": "10164-2",
                  "system": "http://loinc.org",
                  "display": "HISTORY OF PRESENT ILLNESS"
                }
              ]
            },
            "mode": "snapshot"
          },
          {
            "id": "30692aec-58b6-6d48-16d9-9cae74acbeb4",
            "title": "REASON FOR VISIT",
            "text": {
              "status": "generated",
              "div": "Patient states he has a discharge and burning upon urination, Pt. here due to highly sexually active and would like a full STI/STD panel"
            },
            "code": {
              "coding": [
                {
                  "code": "29299-5",
                  "system": "http://loinc.org",
                  "display": "REASON FOR VISIT"
                }
              ]
            },
            "mode": "snapshot",
            "extension": [
              {
                "url": "http://hl7.org/fhir/cda/ccda/StructureDefinition/2.16.840.1.113883.10.20.22.2.12",
                "valueString": "Patient states he has a discharge and burning upon urination, Pt. here due to highly sexually active and would like a full STI/STD panel"
              }
            ]
          },
          {
            "id": "70c02997-bfe0-8f41-14ea-17bd27e24984",
            "title": "SOCIAL HISTORY",
            "text": {
              "status": "generated",
              "div": "<table border=\"1\" width=\"100%\" xmlns=\"urn:hl7-org:v3\"><thead><tr><th align=\"left\">Date</th><th align=\"left\">Observation</th><th align=\"left\">Value</th><th align=\"left\">Provider</th></tr></thead><tbody><tr ID=\"d58682e13-1.2.840.113619.21.1.139060385287897942.10.1591243503706.600591\"><td align=\"left\">2020/05/30</td><td>time of call</td><td>05/30/2020 3:13 PM</td><td>Mary Caitlin Gondek </td></tr><tr ID=\"d58682e100-1.2.840.113619.21.1.139060385287897942.10.1591243503706.600591\"><td align=\"left\">2020/05/28</td><td>social history reviewed E&amp;M</td><td>reviewed today</td><td>Celeste McFarland </td></tr><tr ID=\"d58682e187-1.2.840.113619.21.1.139060385287897942.10.1591243503706.600591\"><td align=\"center\">\"</td><td>assessment of health literacy (NCQA PCMH 2014 Standards, 3C10)</td><td>Adequate</td><td>Tiffany Brown </td></tr><tr ID=\"d58682e274-1.2.840.113619.21.1.139060385287897942.10.1591243503706.600591\"><td align=\"center\">\"</td><td>passive cigarette smoke exposure</td><td>No</td><td>Tiffany Brown </td></tr><tr ID=\"d58682e456-1.2.840.113619.21.1.139060385287897942.10.1591243503706.600591\"><td align=\"center\">\"</td><td>if the patient is using/has used a vaping item, Current, Former, Never Used, Not asked</td><td>No</td><td>Tiffany Brown </td></tr><tr ID=\"d58682e544-1.2.840.113619.21.1.139060385287897942.10.1591243503706.600591\"><td align=\"center\">\"</td><td>smoking status</td><td>never smoker</td><td>Tiffany Brown </td></tr><tr ID=\"d58682e651-1.2.840.113619.21.1.139060385287897942.10.1591243503706.600591\"><td align=\"left\">2020/04/01</td><td>is there any chance that you could be pregnant?</td><td>No</td><td>Jenetta Merriweather </td></tr><tr ID=\"d58682e738-1.2.840.113619.21.1.139060385287897942.10.1591243503706.600591\"><td align=\"center\">\"</td><td>assessment of health literacy (NCQA PCMH 2014 Standards, 3C10)</td><td>Adequate</td><td>Jenetta Merriweather </td></tr><tr ID=\"d58682e916-1.2.840.113619.21.1.139060385287897942.10.1591243503706.600591\"><td align=\"center\">\"</td><td>passive cigarette smoke exposure</td><td>No</td><td>Jenetta Merriweather </td></tr><tr ID=\"d58682e1007-1.2.840.113619.21.1.139060385287897942.10.1591243503706.600591\"><td align=\"center\">\"</td><td>if the patient is using/has used a vaping item, Current, Former, Never Used, Not asked</td><td>No</td><td>Jenetta Merriweather </td></tr><tr ID=\"d58682e1094-1.2.840.113619.21.1.139060385287897942.10.1591243503706.600591\"><td align=\"center\">\"</td><td>smoking status</td><td>never smoker</td><td>Jenetta Merriweather </td></tr><tr ID=\"d58682e1201-1.2.840.113619.21.1.139060385287897942.10.1591243503706.600591\"><td align=\"center\">\"</td><td>Exercise Program Referral</td><td>T</td><td>Jenetta Merriweather </td></tr><tr ID=\"d58682e1292-1.2.840.113619.21.1.139060385287897942.10.1591243503706.600591\"><td align=\"center\">\"</td><td>Weight Management Counseling Provided</td><td>T</td><td>Jenetta Merriweather </td></tr><tr ID=\"d58682e1379-1.2.840.113619.21.1.139060385287897942.10.1591243503706.600591\"><td align=\"center\">\"</td><td>Nutrition intervention</td><td>T</td><td>Jenetta Merriweather </td></tr><tr ID=\"d58682e1466-1.2.840.113619.21.1.139060385287897942.10.1591243503706.600591\"><td align=\"left\">2020/04/01</td><td>time of call</td><td>04/01/2020 11:49 AM</td><td>Jenetta Merriweather </td></tr></tbody></table>"
            },
            "code": {
              "coding": [
                {
                  "code": "29762-2",
                  "system": "http://loinc.org",
                  "display": "SOCIAL HISTORY"
                }
              ]
            },
            "mode": "snapshot",
            "entry": [
              {
                "reference": "Observation/73d8a817-0482-6fa8-6ddf-7bb73d3fd347"
              },
              {
                "reference": "Observation/da2f0979-1c9c-07cd-8f43-419f393ea92e"
              },
              {
                "reference": "Observation/1a9819c6-c4e8-ce52-15cf-9a87cda20f98"
              },
              {
                "reference": "Observation/15e161ed-7f2f-f876-3ec2-1c78105b8ca6"
              },
              {
                "reference": "Observation/79115c06-b377-8691-d5ac-22f2f19bc03c"
              },
              {
                "reference": "Observation/3e756f27-9115-6dbd-f856-1bb8cdee4fc1"
              },
              {
                "reference": "Observation/92849a01-2954-a14d-d321-a3a525206507"
              },
              {
                "reference": "Observation/cfa02ebb-cdb8-d512-b422-3a3c8d3fdf51"
              },
              {
                "reference": "Observation/94906333-ce8d-bdde-0b02-4b3af3a7c9c9"
              },
              {
                "reference": "Observation/f6120a4f-a10a-5cf9-cf9c-5a6ab8f32880"
              },
              {
                "reference": "Observation/8c3f83a8-09aa-9915-0bac-b90d7fb9b001"
              },
              {
                "reference": "Observation/6992c790-8098-4f96-296e-6bc1b3eafb57"
              },
              {
                "reference": "Observation/0f7581e2-d554-8ed5-993b-01b75d376291"
              },
              {
                "reference": "Observation/8b335e3e-f167-c345-a80d-3128f9bbfb47"
              },
              {
                "reference": "Observation/d88b809b-2226-79c9-e3c7-4759c834530b"
              }
            ]
          },
          {
            "id": "f74a7805-28ba-fed8-813e-a90a25c49b33",
            "title": "ENCOUNTERS",
            "text": {
              "status": "generated",
              "div": "<table border=\"1\" width=\"100%\" xmlns=\"urn:hl7-org:v3\"><thead><tr><th align=\"left\">Date</th><th align=\"left\">Type</th><th align=\"left\">Provider</th><th align=\"left\">Location</th><th align=\"left\">Encounter Diagnosis</th></tr></thead><tbody><tr ID=\"d58671e13-1.2.840.113619.21.1.139060385287897942.10.1591243503659.887478\"><td>2020/06/01 - 2020/06/01</td><td>Phone Note</td><td><list listType=\"unordered\"><item>Mary Caitlin Gondek </item></list></td><td>Sunnyside Health Center</td><td>UNK</td></tr><tr ID=\"d58671e95-1.2.840.113619.21.1.139060385287897942.10.1591243503659.887478\"><td>2020/05/31 - 2020/05/31</td><td>Phone Note</td><td><list listType=\"unordered\"><item>Mary Caitlin Gondek </item></list></td><td>Sunnyside Health Center</td><td>UNK</td></tr><tr ID=\"d58671e177-1.2.840.113619.21.1.139060385287897942.10.1591243503659.887478\"><td>2020/05/30 - 2020/05/30</td><td>Phone Note</td><td><list listType=\"unordered\"><item>Mary Caitlin Gondek </item></list></td><td>Sunnyside Health Center</td><td>UNK</td></tr><tr ID=\"d58671e259-1.2.840.113619.21.1.139060385287897942.10.1591243503659.887478\"><td>2020/05/28 - 2020/05/28</td><td>Lab Report</td><td><list listType=\"unordered\"><item>Celeste McFarland </item><item>LinkLogic </item><item>Mary Caitlin Gondek </item></list></td><td>Near North Health Service Corporation</td><td>UNK</td></tr><tr ID=\"d58671e353-1.2.840.113619.21.1.139060385287897942.10.1591243503659.887478\"><td>2020/05/28 - 2020/05/28</td><td>Lab Report</td><td><list listType=\"unordered\"><item>Celeste McFarland </item><item>LinkLogic </item><item>Mary Caitlin Gondek </item></list></td><td>Near North Health Service Corporation</td><td>UNK</td></tr><tr ID=\"d58671e447-1.2.840.113619.21.1.139060385287897942.10.1591243503659.887478\"><td>2020/05/28 - 2020/05/28</td><td>Lab Report</td><td><list listType=\"unordered\"><item>Celeste McFarland </item><item>LinkLogic </item></list></td><td>Near North Health Service Corporation</td><td>UNK</td></tr><tr ID=\"d58671e536-1.2.840.113619.21.1.139060385287897942.10.1591243503659.887478\"><td>2020/05/28 - 2020/05/28</td><td>Lab Report</td><td><list listType=\"unordered\"><item>Celeste McFarland </item><item>LinkLogic </item></list></td><td>Near North Health Service Corporation</td><td>UNK</td></tr><tr ID=\"d58671e624-1.2.840.113619.21.1.139060385287897942.10.1591243503659.887478\"><td>2020/05/28 - 2020/05/28</td><td>Office Visit</td><td><list listType=\"unordered\"><item>Celeste McFarland </item><item>Salama Witherspoon </item><item>Tiffany Brown </item></list></td><td>Komed Holman Health Center</td><td><list listType=\"unordered\"><item>Std screening</item><item>Dysuria</item></list></td></tr><tr ID=\"d58671e731-1.2.840.113619.21.1.139060385287897942.10.1591243503659.887478\"><td>2020/05/07 - 2020/05/07</td><td>Virtual Office Visit</td><td><list listType=\"unordered\"><item>Beeba A. Mathew </item></list></td><td>Komed Holman Health Center</td><td>UNK</td></tr><tr ID=\"d58671e813-1.2.840.113619.21.1.139060385287897942.10.1591243503659.887478\"><td>2020/05/07 - 2020/05/07</td><td>Registration</td><td><list listType=\"unordered\"><item>Registration NNHSC Desktop </item><item>LinkLogic </item></list></td><td>Komed Holman Health Center</td><td>UNK</td></tr><tr ID=\"d58671e901-1.2.840.113619.21.1.139060385287897942.10.1591243503659.887478\"><td>2020/04/06 - 2020/04/06</td><td>Phone Note</td><td><list listType=\"unordered\"><item>Elizabeth Herzan-Taylor </item></list></td><td>Komed Holman Health Center</td><td><list listType=\"unordered\"><item>UTI</item></list></td></tr><tr ID=\"d58671e985-1.2.840.113619.21.1.139060385287897942.10.1591243503659.887478\"><td>2020/04/02 - 2020/04/02</td><td>Lab Report</td><td><list listType=\"unordered\"><item>Elizabeth Herzan-Taylor </item><item>LinkLogic </item></list></td><td>Near North Health Service Corporation</td><td>UNK</td></tr><tr ID=\"d58671e1073-1.2.840.113619.21.1.139060385287897942.10.1591243503659.887478\"><td>2020/04/02 - 2020/04/02</td><td>Append</td><td><list listType=\"unordered\"><item>Salama Witherspoon </item></list></td><td>Komed Holman Health Center</td><td>UNK</td></tr><tr ID=\"d58671e1155-1.2.840.113619.21.1.139060385287897942.10.1591243503659.887478\"><td>2020/04/01 - 2020/04/01</td><td>Lab Report</td><td><list listType=\"unordered\"><item>Elizabeth Herzan-Taylor </item><item>LinkLogic </item></list></td><td>Near North Health Service Corporation</td><td>UNK</td></tr><tr ID=\"d58671e1243-1.2.840.113619.21.1.139060385287897942.10.1591243503659.887478\"><td>2020/04/01 - 2020/04/01</td><td>Registration</td><td><list listType=\"unordered\"><item>Registration NNHSC Desktop </item><item>LinkLogic </item></list></td><td>Komed Holman Health Center</td><td>UNK</td></tr><tr ID=\"d58671e1331-1.2.840.113619.21.1.139060385287897942.10.1591243503659.887478\"><td>2020/04/01 - 2020/04/01</td><td>Internal Correspondence</td><td><list listType=\"unordered\"><item>Elizabeth Herzan-Taylor </item></list></td><td>Komed Holman Health Center</td><td>UNK</td></tr><tr ID=\"d58671e1413-1.2.840.113619.21.1.139060385287897942.10.1591243503659.887478\"><td>2020/04/01 - 2020/04/01</td><td>Internal Correspondence</td><td><list listType=\"unordered\"><item>Elizabeth Herzan-Taylor </item></list></td><td>Komed Holman Health Center</td><td>UNK</td></tr><tr ID=\"d58671e1496-1.2.840.113619.21.1.139060385287897942.10.1591243503659.887478\"><td>2020/04/01 - 2020/04/01</td><td>Office Visit</td><td><list listType=\"unordered\"><item>Elizabeth Herzan-Taylor </item><item>Salama Witherspoon </item><item>Jenetta Merriweather </item></list></td><td>Komed Holman Health Center</td><td><list listType=\"unordered\"><item>UTI</item></list></td></tr><tr ID=\"d58671e1601-1.2.840.113619.21.1.139060385287897942.10.1591243503659.887478\"><td>2020/04/01 - 2020/04/01</td><td>Phone Note</td><td><list listType=\"unordered\"><item>Elizabeth Herzan-Taylor </item><item>Jenetta Merriweather </item></list></td><td>Komed Holman Health Center</td><td>UNK</td></tr></tbody></table>"
            },
            "code": {
              "coding": [
                {
                  "code": "46240-8",
                  "system": "http://loinc.org",
                  "display": "ENCOUNTERS"
                }
              ]
            },
            "mode": "snapshot"
          },
          {
            "id": "3f4e8e2b-5f18-fcde-b913-de999e152c8a",
            "title": "MEDICATIONS ADMINISTERED",
            "text": {
              "status": "generated",
              "div": "No Known MEDICATIONS ADMINISTERED"
            },
            "code": {
              "coding": [
                {
                  "code": "29549-3",
                  "system": "http://loinc.org",
                  "display": "MEDICATIONS ADMINISTERED"
                }
              ]
            },
            "mode": "snapshot",
            "entry": [
              {
                "reference": "MedicationAdministration/4983fa1d-0f1a-d8d8-7918-d89fa6ed9f41"
              }
            ]
          },
          {
            "id": "c9706136-868a-69a4-6d79-f1047f741d8f",
            "title": "HISTORY OF MEDICATION USE",
            "text": {
              "status": "generated",
              "div": "<table border=\"1\" width=\"100%\" xmlns=\"urn:hl7-org:v3\"><thead><tr><th align=\"left\">Medication</th><th align=\"left\">Status</th><th align=\"left\">Instructions</th><th align=\"left\">Dates</th><th align=\"left\">Provider</th><th align=\"left\">Indications</th><th align=\"left\">Comments</th></tr></thead><tbody><tr ID=\"d58664e18-1.2.840.113619.21.1.139060385287897942.10.1591243503644.659748\"><td ID=\"d58664e82\">DOXYCYCLINE HYCLATE 100 MG ORAL TABLET</td><td>active</td><td ID=\"d58664e85\">Take 1 tablet by mouth twice a day for 7 days</td><td>2020/05/30 - 2020/06/09</td><td>Mary Caitlin Gondek </td><td /><td /></tr></tbody></table>"
            },
            "code": {
              "coding": [
                {
                  "code": "10160-0",
                  "system": "http://loinc.org",
                  "display": "HISTORY OF MEDICATION USE"
                }
              ]
            },
            "mode": "snapshot"
          },
          {
            "id": "8ebfdb96-5af3-06c7-ba87-e9d495de7fe2",
            "title": "Problems",
            "text": {
              "status": "generated",
              "div": "No Known Problems"
            },
            "code": {
              "coding": [
                {
                  "code": "11450-4",
                  "system": "http://loinc.org",
                  "display": "Problem list - Reported"
                }
              ]
            },
            "mode": "snapshot",
            "entry": [
              {
                "display": "Problem - Problem",
                "reference": "Condition/c9620d14-4819-b024-11ac-539179d3add1"
              }
            ]
          },
          {
            "id": "4bba1ce9-7386-9d41-0b9d-54dfbd36486f",
            "title": "RESULTS",
            "text": {
              "status": "generated",
              "div": "<table border=\"1\" width=\"100%\" xmlns=\"urn:hl7-org:v3\"><thead><tr><th align=\"left\">Date</th><th align=\"left\">Observation</th><th align=\"left\">Value</th><th align=\"left\">Provider</th><th align=\"left\">Reference Range</th><th align=\"left\">Interpretation</th><th align=\"left\">Location</th></tr></thead><tbody><tr ID=\"d58693e13-1.2.840.113619.21.1.139060385287897942.10.1591243503706.73203\"><td align=\"left\">2020/05/28</td><td>Neisseria gonorrhoeae DNA probe</td><td>Negative</td><td>LinkLogic </td><td>Negative</td><td /><td /></tr><tr ID=\"d58693e112-1.2.840.113619.21.1.139060385287897942.10.1591243503706.73203\"><td align=\"center\">\"</td><td>chlamydia DNA probe</td><td>Positive</td><td>LinkLogic </td><td>Negative</td><td>Abnormal</td><td /></tr><tr ID=\"d58693e217-1.2.840.113619.21.1.139060385287897942.10.1591243503706.73203\"><td align=\"center\">\"</td><td>rapid plasma reagin antibody, serum</td><td>Non Reactive</td><td>LinkLogic </td><td>Non Reactive</td><td /><td /></tr><tr ID=\"d58693e316-1.2.840.113619.21.1.139060385287897942.10.1591243503706.73203\"><td align=\"left\">2020/04/02</td><td>Neisseria gonorrhoeae DNA probe</td><td>Negative</td><td>LinkLogic </td><td>Negative</td><td /><td /></tr><tr ID=\"d58693e415-1.2.840.113619.21.1.139060385287897942.10.1591243503706.73203\"><td align=\"center\">\"</td><td>chlamydia DNA probe</td><td>Negative</td><td>LinkLogic </td><td>Negative</td><td /><td /></tr><tr ID=\"d58693e514-1.2.840.113619.21.1.139060385287897942.10.1591243503706.73203\"><td align=\"left\">2020/04/01</td><td>rapid plasma reagin antibody, serum</td><td>Non Reactive</td><td>LinkLogic </td><td>Non Reactive</td><td /><td /></tr></tbody></table>"
            },
            "code": {
              "coding": [
                {
                  "code": "30954-2",
                  "system": "http://loinc.org",
                  "display": "RESULTS"
                }
              ]
            },
            "mode": "snapshot",
            "entry": [
              {
                "reference": "Observation/ebb2a555-9344-2f03-67a8-8ce2617b8c91",
                "display": "Neisseria gonorrhoeae DNA probe"
              },
              {
                "reference": "Observation/fdbfca4b-5e1c-5c31-6135-706d9aae26eb",
                "display": "chlamydia DNA probe"
              },
              {
                "reference": "Observation/8402b503-b85e-07fd-eaa5-a09e6f876062",
                "display": "rapid plasma reagin antibody, serum"
              },
              {
                "reference": "Observation/76d95afa-ddbc-b0f8-5063-abcab50fd886",
                "display": "Neisseria gonorrhoeae DNA probe"
              },
              {
                "reference": "Observation/9f2fb95a-68fd-a730-5cdb-ee7783133cda",
                "display": "chlamydia DNA probe"
              },
              {
                "reference": "Observation/4b6f5f27-82f3-037b-c3b6-d35b0ce41de6",
                "display": "rapid plasma reagin antibody, serum"
              }
            ]
          }
        ],
        "subject": {
          "reference": "Patient/6616e746-faef-ea4e-b061-591b28ebe5bc"
        },
        "encounter": {
          "reference": "Encounter/bb44bb8e-af4d-7cf5-b8a0-bfed3557d83a"
        },
        "custodian": {
          "reference": "Organization/d2b3e4bd-d955-5cf3-2e7f-05a838ea7a7d"
        },
        "author": [
          {
            "reference": "PractitionerRole/9abfda73-a25d-69e5-95d2-96329384db2b"
          },
          {
            "reference": "Device/48c756a8-18ae-5310-e8d7-2de6957e99b8"
          }
        ]
      },
      "request": {
        "method": "PUT",
        "url": "Composition/1906844699671520"
      }
    },
    {
      "fullUrl": "urn:uuid:bb44bb8e-af4d-7cf5-b8a0-bfed3557d83a",
      "resource": {
        "resourceType": "Encounter",
        "id": "bb44bb8e-af4d-7cf5-b8a0-bfed3557d83a",
        "status": "unknown",
        "class": {
          "code": "PHC2237",
          "system": "2.16.840.1.114222.4.5.274",
          "display": "External Encounter"
        },
        "identifier": [
          {
            "extension": {
              "url": "http://hl7.org/fhir/ValueSet/data-absent-reason",
              "valueCode": "not-applicable"
            }
          }
        ],
        "subject": {
          "reference": "Patient/6616e746-faef-ea4e-b061-591b28ebe5bc"
        },
        "location": [
          {
            "id": "2.16.840.1.113883.4.6",
            "location": {
              "reference": "Location/bdf4bd41-5f95-3434-7bad-c22f469af6db",
              "display": "None"
            },
            "extension": [
              {
                "url": "http://build.fhir.org/ig/HL7/case-reporting/StructureDefinition-us-ph-location-definitions.html#Location.type",
                "valueCodeableConcept": {
                  "coding": [
                    {
                      "system": "http://hl7.org/fhir/sid/us-npi"
                    }
                  ]
                }
              }
            ]
          }
        ],
        "serviceProvider": {
          "reference": "Organization/42e178bb-0fd1-7329-a02e-c06b5c9782b8"
        },
        "participant": [
          {
            "type": [
              {
                "coding": [
                  {
                    "system": "http://terminology.hl7.org/CodeSystem/v3-ParticipationType",
                    "code": "ATND"
                  }
                ]
              }
            ],
            "individual": {
              "reference": "PractitionerRole/e8d30303-e0a1-2dbb-bddb-d208c95aad77"
            }
          }
        ]
      },
      "request": {
        "method": "PUT",
        "url": "Encounter/bb44bb8e-af4d-7cf5-b8a0-bfed3557d83a"
      }
    },
    {
      "fullUrl": "urn:uuid:bdf4bd41-5f95-3434-7bad-c22f469af6db",
      "resource": {
        "resourceType": "Location",
        "id": "bdf4bd41-5f95-3434-7bad-c22f469af6db",
        "identifier": [
          {
            "system": "http://hl7.org/fhir/sid/us-npi",
            "_value": {
              "extension": {
                "url": "http://hl7.org/fhir/ValueSet/data-absent-reason",
                "valueCode": "not-applicable"
              }
            }
          }
        ],
        "type": [
          {
            "coding": [
              {
                "system": "http://hl7.org/fhir/sid/us-npi"
              }
            ]
          }
        ]
      },
      "request": {
        "method": "PUT",
        "url": "Location/bdf4bd41-5f95-3434-7bad-c22f469af6db"
      }
    },
    {
      "fullUrl": "urn:uuid:42e178bb-0fd1-7329-a02e-c06b5c9782b8",
      "resource": {
        "resourceType": "Organization",
        "id": "42e178bb-0fd1-7329-a02e-c06b5c9782b8"
      },
      "request": {
        "method": "PUT",
        "url": "Organization/42e178bb-0fd1-7329-a02e-c06b5c9782b8"
      }
    },
    {
      "fullUrl": "urn:uuid:e8d30303-e0a1-2dbb-bddb-d208c95aad77",
      "resource": {
        "resourceType": "Practitioner",
        "id": "e8d30303-e0a1-2dbb-bddb-d208c95aad77",
        "meta": {
          "profile": [
            "http://hl7.org/fhir/us/core/StructureDefinition/us-core-practitioner"
          ]
        },
        "extension": [
          {
            "url": "http://hl7.org/fhir/StructureDefinition/_datatype",
            "valueString": "Responsible Party"
          }
        ],
        "identifier": [
          {
            "system": "http://hl7.org/fhir/sid/us-npi",
            "_value": {
              "extension": {
                "url": "http://hl7.org/fhir/ValueSet/data-absent-reason",
                "valueCode": "not-applicable"
              }
            }
          }
        ]
      },
      "request": {
        "method": "PUT",
        "url": "Practitioner/e8d30303-e0a1-2dbb-bddb-d208c95aad77"
      }
    },
    {
      "resource": {
        "resourceType": "PractitionerRole",
        "id": "e8d30303-e0a1-2dbb-bddb-d208c95aad77",
        "practitioner": {
          "reference": "Practitioner/e8d30303-e0a1-2dbb-bddb-d208c95aad77"
        },
        "organization": {
          "reference": "Organization/43eaaf8e-f805-d37c-8e4e-77965eef87aa"
        }
      }
    },
    {
      "fullUrl": "urn:uuid:43eaaf8e-f805-d37c-8e4e-77965eef87aa",
      "resource": {
        "resourceType": "Organization",
        "id": "43eaaf8e-f805-d37c-8e4e-77965eef87aa"
      },
      "request": {
        "method": "PUT",
        "url": "Organization/43eaaf8e-f805-d37c-8e4e-77965eef87aa"
      }
    },
    {
      "fullUrl": "urn:uuid:d2b3e4bd-d955-5cf3-2e7f-05a838ea7a7d",
      "resource": {
        "resourceType": "Organization",
        "id": "d2b3e4bd-d955-5cf3-2e7f-05a838ea7a7d",
        "identifier": [
          {
            "system": "urn:oid:1.2.840.113619.21.1.139060385287897942.9",
            "value": "Organization/LO-1562595258005560",
            "assigner": {
              "display": " API Resource Identifier"
            }
          },
          {
            "system": "UNK",
            "value": "LO-1562595258005560",
            "assigner": {
              "display": "Organization Identifier"
            }
          },
          {
            "system": "urn:oid:2.16.840.1.113883.4.2",
            "value": "363197647",
            "assigner": {
              "display": "Tax ID number"
            }
          }
        ],
        "name": "Reavis School-based Health Center",
        "address": [
          {
            "line": [
              "834 E. 50th Street"
            ],
            "city": "Chicago",
            "state": "IL",
            "country": "USA",
            "postalCode": "60615"
          }
        ],
        "telecom": [
          {
            "system": "phone",
            "value": "7733586767",
            "use": "work"
          }
        ]
      },
      "request": {
        "method": "PUT",
        "url": "Organization/d2b3e4bd-d955-5cf3-2e7f-05a838ea7a7d"
      }
    },
    {
      "fullUrl": "urn:uuid:406c3e36-d27a-041b-61a8-e29df69f50e1",
      "resource": {
        "resourceType": "Practitioner",
        "id": "406c3e36-d27a-041b-61a8-e29df69f50e1",
        "meta": {
          "profile": [
            "http://hl7.org/fhir/us/core/StructureDefinition/us-core-practitioner"
          ]
        },
        "identifier": [
          {
            "system": "urn:oid:1.2.840.113619.21.1.139060385287897942.2.2",
            "value": "1467041069000630",
            "assigner": {
              "display": " Providers by PVID"
            }
          },
          {
            "system": "urn:oid:1.2.840.113619.21.1.139060385287897942.2.1",
            "value": "365",
            "assigner": {
              "display": " Providers by DoctorFacility"
            }
          }
        ],
        "name": [
          {
            "family": "Nurse Desk",
            "given": [
              "KH WH"
            ]
          }
        ],
        "address": [
          {
            "line": [
              "Winfield Moody",
              "1276 N Clybourn"
            ],
            "city": "Chicago",
            "state": "IL",
            "postalCode": "60653"
          }
        ],
        "telecom": [
          {
            "system": "phone",
            "value": "3123371073",
            "use": "work"
          },
          {
            "system": "phone",
            "value": "3123377616",
            "use": "mobile"
          }
        ]
      },
      "request": {
        "method": "PUT",
        "url": "Practitioner/406c3e36-d27a-041b-61a8-e29df69f50e1"
      }
    },
    {
      "fullUrl": "urn:uuid:01fe444a-5df3-6915-447b-5b16fe2c6872",
      "resource": {
        "resourceType": "Organization",
        "id": "01fe444a-5df3-6915-447b-5b16fe2c6872",
        "identifier": [
          {
            "system": "urn:oid:1.2.840.113619.21.1.139060385287897942.9",
            "value": "Organization/DF-76",
            "assigner": {
              "display": " API Resource Identifier"
            }
          },
          {
            "system": "UNK",
            "value": "DF-76",
            "assigner": {
              "display": "Organization Identifier"
            }
          },
          {
            "system": "http://hl7.org/fhir/sid/us-npi",
            "value": "1821079088",
            "assigner": {
              "display": "National Provider Identifier"
            }
          },
          {
            "system": "urn:oid:2.16.840.1.113883.4.2",
            "value": "363197647",
            "assigner": {
              "display": "Tax ID number"
            }
          }
        ],
        "name": "Winfield Moody Health Center",
        "address": [
          {
            "line": [
              "1276 N Clybourn"
            ],
            "city": "Chicago",
            "state": "IL ",
            "postalCode": "60610     "
          }
        ],
        "telecom": [
          {
            "system": "phone",
            "value": "3123371073     ",
            "use": "work"
          }
        ]
      },
      "request": {
        "method": "PUT",
        "url": "Organization/01fe444a-5df3-6915-447b-5b16fe2c6872"
      }
    },
    {
      "resource": {
        "resourceType": "PractitionerRole",
        "id": "9abfda73-a25d-69e5-95d2-96329384db2b",
        "organization": {
          "reference": "Organization/01fe444a-5df3-6915-447b-5b16fe2c6872"
        },
        "practitioner": {
          "reference": "Practitioner/406c3e36-d27a-041b-61a8-e29df69f50e1"
        }
      }
    },
    {
      "fullUrl": "urn:uuid:48c756a8-18ae-5310-e8d7-2de6957e99b8",
      "resource": {
        "resourceType": "Device",
        "id": "48c756a8-18ae-5310-e8d7-2de6957e99b8",
        "identifier": [
          {
            "system": "urn:ietf:rfc:3986",
            "value": "urn:oid:1.2.840.113619.21.1.139060385287897942.11"
          }
        ],
        "manufacturer": "12.3/9.12",
        "version": [
          {
            "value": "GE Healthcare API Server"
          }
        ],
        "property": [
          {
            "type": {
              "coding": [
                {
                  "system": "http://hl7.org/fhir/device-category",
                  "code": "software",
                  "display": "software"
                }
              ]
            }
          }
        ],
        "owner": {
          "reference": "Organization/d2b3e4bd-d955-5cf3-2e7f-05a838ea7a7d"
        }
      },
      "request": {
        "method": "PUT",
        "url": "Device/48c756a8-18ae-5310-e8d7-2de6957e99b8"
      }
    },
    {
      "fullUrl": "urn:uuid:6616e746-faef-ea4e-b061-591b28ebe5bc",
      "resource": {
        "resourceType": "Patient",
        "id": "6616e746-faef-ea4e-b061-591b28ebe5bc",
        "meta": {
          "profile": [
            "http://hl7.org/fhir/us/core/StructureDefinition/us-core-patient"
          ]
        },
        "identifier": [
          {
            "system": "urn:oid:1.2.840.113619.21.1.139060385287897942.2.1.1.1",
            "value": "1481705322100940"
          },
          {
            "system": "urn:oid:1.2.840.113619.21.1.139060385287897942.2.1.1.2",
            "value": "85382",
            "assigner": {
              "display": "GE EMR-CPS PatientId"
            }
          },
          {
            "system": "urn:oid:1.2.840.113619.21.1.139060385287897942.2.1.1",
            "value": "K96789",
            "assigner": {
              "display": "GE EMR-CPS PatientMRN"
            }
          }
        ],
        "name": [
          {
            "use": "official",
            "family": "Patient4",
            "given": [
              "Sample"
            ]
          }
        ],
        "birthDate": "1991-04-01",
        "deceasedBoolean": false,
        "gender": "female",
        "extension": [
          {
            "url": "http://hl7.org/fhir/us/core/StructureDefinition/us-core-race",
            "extension": [
              {
                "url": "ombCategory",
                "valueCoding": {
                  "code": "2054-5",
                  "system": "urn:oid:2.16.840.1.113883.6.238",
                  "display": "Black or African American"
                }
              },
              {
                "url": "text",
                "valueString": "Black or African American"
              }
            ]
          },
          {
            "url": "http://hl7.org/fhir/us/core/StructureDefinition/us-core-ethnicity",
            "extension": [
              {
                "url": "ombCategory",
                "valueCoding": {
                  "code": "2186-5",
                  "system": "urn:oid:2.16.840.1.113883.6.238",
                  "display": "Not Hispanic or Latino"
                }
              },
              {
                "url": "text",
                "valueString": "Not Hispanic or Latino"
              }
            ]
          }
        ],
        "address": [
          {
            "line": [
              "4 Sample Street",
              "apt 2"
            ],
            "city": "Chicago",
            "state": "IL",
            "postalCode": "60653"
          }
        ],
        "telecom": [
          {
            "system": "phone",
            "value": "3129998888",
            "use": "mobile"
          }
        ],
        "communication": [
          {
            "language": {
              "coding": [
                {
                  "system": "urn:ietf:bcp:47",
                  "code": "en",
                  "display": "English"
                }
              ]
            },
            "preferred": true
          }
        ]
      },
      "request": {
        "method": "PUT",
        "url": "Patient/6616e746-faef-ea4e-b061-591b28ebe5bc"
      }
    },
    {
      "fullUrl": "urn:uuid:4983fa1d-0f1a-d8d8-7918-d89fa6ed9f41",
      "resource": {
        "resourceType": "MedicationAdministration",
        "id": "4983fa1d-0f1a-d8d8-7918-d89fa6ed9f41",
        "identifier": [
          {
            "system": "urn:ietf:rfc:3986",
            "value": "urn:oid:1.2.840.113619.21.1.139060385287897942.10.1591243503628.347760"
          }
        ],
        "status": "in-progress",
        "effectivePeriod": {
          "start": "1970-01-01T00:00:00",
          "end": "2020-06-03T23:05:03.628-05:00"
        },
        "subject": {
          "reference": "Patient/6616e746-faef-ea4e-b061-591b28ebe5bc"
        },
        "medicationReference": {
          "reference": "Medication/cfbe2a1a-c8da-ec09-57cb-0f4fdfc02412"
        }
      },
      "request": {
        "method": "PUT",
        "url": "MedicationAdministration/4983fa1d-0f1a-d8d8-7918-d89fa6ed9f41"
      }
    },
    {
      "fullUrl": "urn:uuid:cfbe2a1a-c8da-ec09-57cb-0f4fdfc02412",
      "resource": {
        "resourceType": "Medication",
        "id": "cfbe2a1a-c8da-ec09-57cb-0f4fdfc02412",
        "code": {
          "coding": [
            {
              "system": "http://www.nlm.nih.gov/research/umls/rxnorm"
            },
            {
              "code": "410942007",
              "system": "http://snomed.info/sct",
              "display": "drug or medication"
            }
          ]
        }
      },
      "request": {
        "method": "PUT",
        "url": "Medication/cfbe2a1a-c8da-ec09-57cb-0f4fdfc02412"
      }
    },
    {
      "fullUrl": "urn:uuid:28f083da-8bf7-9dd3-d83d-0eab21a3f477",
      "resource": {
        "resourceType": "MedicationStatement",
        "id": "28f083da-8bf7-9dd3-d83d-0eab21a3f477",
        "identifier": [
          {
            "system": "urn:oid:1.2.840.113619.21.1.139060385287897942.9",
            "value": "MedicationStatement/1906471015350550",
            "assigner": {
              "display": " API Resource Identifier"
            }
          }
        ],
        "status": "active",
        "dosage": [
          {
            "doseAndRate": [
              {
                "doseQuantity": {
                  "value": 1,
                  "unit": "{Tablet}"
                }
              }
            ]
          }
        ],
        "subject": {
          "reference": "Patient/6616e746-faef-ea4e-b061-591b28ebe5bc"
        },
        "medicationReference": {
          "reference": "Medication/002e99f5-6048-cb98-d6ba-2f8ff2ce9389"
        }
      },
      "request": {
        "method": "PUT",
        "url": "MedicationStatement/28f083da-8bf7-9dd3-d83d-0eab21a3f477"
      }
    },
    {
      "fullUrl": "urn:uuid:002e99f5-6048-cb98-d6ba-2f8ff2ce9389",
      "resource": {
        "resourceType": "Medication",
        "id": "002e99f5-6048-cb98-d6ba-2f8ff2ce9389",
        "code": {
          "coding": [
            {
              "code": "1650143",
              "system": "http://www.nlm.nih.gov/research/umls/rxnorm",
              "display": "DOXYCYCLINE HYCLATE"
            },
            {
              "code": "7067",
              "system": "2.16.840.1.113883.6.253"
            },
            {
              "code": "04000020100310",
              "system": "2.16.840.1.113883.6.68"
            },
            {
              "code": "470",
              "system": "1.2.840.113619.21.100.12.998"
            },
            {
              "code": "8007",
              "system": "1.2.840.113619.21.100.12.999"
            },
            {
              "code": "00143211205",
              "system": "2.16.840.1.113883.6.69"
            }
          ],
          "text": "(DOXYCYCLINE HYCLATE) 100 MG TABS"
        }
      },
      "request": {
        "method": "PUT",
        "url": "Medication/002e99f5-6048-cb98-d6ba-2f8ff2ce9389"
      }
    },
    {
      "fullUrl": "urn:uuid:7c87207b-ec3d-6fd1-2f65-1e743b9dc667",
      "resource": {
        "resourceType": "MedicationRequest",
        "id": "7c87207b-ec3d-6fd1-2f65-1e743b9dc667",
        "identifier": [
          {
            "system": "urn:oid:1.2.840.113619.21.1.139060385287897942.9",
            "value": "MedicationOrder/1906471015350650",
            "assigner": {
              "display": " API Resource Identifier"
            }
          },
          {
            "system": "UNK",
            "value": "750A737CC38D43A089D50190B54A63F8",
            "assigner": {
              "display": "Unknown"
            }
          }
        ],
        "status": "completed",
        "intent": "order",
        "authoredOn": "2020-05-30T15:21:39.727-05:00",
        "dispenseRequest": {
          "numberOfRepeatsAllowed": 0
        },
        "subject": {
          "reference": "Patient/6616e746-faef-ea4e-b061-591b28ebe5bc"
        },
        "medicationReference": {
          "reference": "Medication/002e99f5-6048-cb98-d6ba-2f8ff2ce9389"
        },
        "requester": {
          "reference": "Practitioner/98be2515-84b4-cc5b-946e-93b506a990c3"
        }
      },
      "request": {
        "method": "PUT",
        "url": "MedicationRequest/7c87207b-ec3d-6fd1-2f65-1e743b9dc667"
      }
    },
    {
      "fullUrl": "urn:uuid:98be2515-84b4-cc5b-946e-93b506a990c3",
      "resource": {
        "resourceType": "Practitioner",
        "id": "98be2515-84b4-cc5b-946e-93b506a990c3",
        "meta": {
          "profile": [
            "http://hl7.org/fhir/us/core/StructureDefinition/us-core-practitioner"
          ]
        },
        "identifier": [
          {
            "system": "urn:oid:1.2.840.113619.21.1.139060385287897942.2.2",
            "value": "1710335538256870",
            "assigner": {
              "display": " Providers by PVID"
            }
          },
          {
            "system": "urn:oid:1.2.840.113619.21.1.139060385287897942.2.1",
            "value": "1004",
            "assigner": {
              "display": " Providers by DoctorFacility"
            }
          },
          {
            "system": "http://hl7.org/fhir/sid/us-npi",
            "value": "1447691977",
            "assigner": {
              "display": "US National Provider Identifiers"
            }
          },
          {
            "system": "urn:oid:2.16.840.1.113883.4.2",
            "value": "363197647",
            "assigner": {
              "display": "Federal Tax Identifier"
            }
          }
        ],
        "name": [
          {
            "family": "Gondek",
            "given": [
              "Mary",
              "Caitlin"
            ]
          }
        ],
        "address": [
          {
            "line": [
              "Komed Holman Health Center",
              "4259 South Berkeley Avenue"
            ],
            "city": "Chicago",
            "state": "IL",
            "postalCode": "60610"
          }
        ],
        "telecom": [
          {
            "system": "phone",
            "value": "3123371073",
            "use": "work"
          },
          {
            "system": "phone",
            "value": "3123377616",
            "use": "mobile"
          }
        ]
      },
      "request": {
        "method": "PUT",
        "url": "Practitioner/98be2515-84b4-cc5b-946e-93b506a990c3"
      }
    },
    {
      "fullUrl": "urn:uuid:073802f9-55cc-2356-b2d2-54e4086eeae4",
      "resource": {
        "resourceType": "MedicationRequest",
        "id": "073802f9-55cc-2356-b2d2-54e4086eeae4",
        "identifier": [
          {
            "system": "urn:oid:1.2.840.113619.21.1.139060385287897942.9",
            "value": "MedicationOrder/1906561100545340",
            "assigner": {
              "display": " API Resource Identifier"
            }
          },
          {
            "system": "UNK",
            "value": "5C2ABACAB4C54A01B99ECB3BBC1ECF48",
            "assigner": {
              "display": "Unknown"
            }
          }
        ],
        "status": "completed",
        "intent": "order",
        "authoredOn": "2020-05-31T16:19:45.413-05:00",
        "dispenseRequest": {
          "numberOfRepeatsAllowed": 0
        },
        "subject": {
          "reference": "Patient/6616e746-faef-ea4e-b061-591b28ebe5bc"
        },
        "medicationReference": {
          "reference": "Medication/002e99f5-6048-cb98-d6ba-2f8ff2ce9389"
        },
        "requester": {
          "reference": "Practitioner/98be2515-84b4-cc5b-946e-93b506a990c3"
        }
      },
      "request": {
        "method": "PUT",
        "url": "MedicationRequest/073802f9-55cc-2356-b2d2-54e4086eeae4"
      }
    },
    {
      "fullUrl": "urn:uuid:b7772710-6392-01a2-e5f3-3415169ad3a5",
      "resource": {
        "resourceType": "MedicationRequest",
        "id": "b7772710-6392-01a2-e5f3-3415169ad3a5",
        "identifier": [
          {
            "system": "urn:oid:1.2.840.113619.21.1.139060385287897942.9",
            "value": "MedicationOrder/1906621765786490",
            "assigner": {
              "display": " API Resource Identifier"
            }
          },
          {
            "system": "UNK",
            "value": "FA763E34A5C34DECB733E91C98F86AF1",
            "assigner": {
              "display": "Unknown"
            }
          }
        ],
        "status": "completed",
        "intent": "order",
        "authoredOn": "2020-06-01T09:12:31.897-05:00",
        "dispenseRequest": {
          "numberOfRepeatsAllowed": 0
        },
        "subject": {
          "reference": "Patient/6616e746-faef-ea4e-b061-591b28ebe5bc"
        },
        "medicationReference": {
          "reference": "Medication/002e99f5-6048-cb98-d6ba-2f8ff2ce9389"
        },
        "requester": {
          "reference": "Practitioner/98be2515-84b4-cc5b-946e-93b506a990c3"
        }
      },
      "request": {
        "method": "PUT",
        "url": "MedicationRequest/b7772710-6392-01a2-e5f3-3415169ad3a5"
      }
    },
    {
      "fullUrl": "urn:uuid:c9620d14-4819-b024-11ac-539179d3add1",
      "resource": {
        "resourceType": "Condition",
        "id": "c9620d14-4819-b024-11ac-539179d3add1",
        "identifier": [
          {
            "system": "urn:ietf:rfc:3986",
            "value": "urn:oid:1.2.840.113619.21.1.139060385287897942.10.1591243503644.301555"
          }
        ],
        "category": [
          {
            "coding": [
              {
                "code": "problem-item-list",
                "display": "Problem List Item",
                "system": "http://hl7.org/fhir/us/core/ValueSet/us-core-condition-category"
              }
            ]
          }
        ],
        "code": {
          "coding": [
            {
              "code": "55607006",
              "system": "http://snomed.info/sct",
              "display": "Problem"
            }
          ]
        },
        "subject": {
          "reference": "Patient/6616e746-faef-ea4e-b061-591b28ebe5bc"
        }
      },
      "request": {
        "method": "PUT",
        "url": "Condition/c9620d14-4819-b024-11ac-539179d3add1"
      }
    },
    {
      "fullUrl": "urn:uuid:74e0d6b7-7b19-bf3e-4b4a-caa14de6f675",
      "resource": {
        "resourceType": "DiagnosticReport",
        "id": "74e0d6b7-7b19-bf3e-4b4a-caa14de6f675",
        "identifier": [
          {
            "system": "urn:oid:1.2.840.113619.21.1.139060385287897942.9",
            "value": "Observation/1906402110877440",
            "assigner": {
              "display": "31913-41995-12761042 API Resource Identifier"
            }
          }
        ],
        "status": "final",
        "code": {
          "coding": [
            {
              "code": "30954-2",
              "system": "http://loinc.org",
              "display": "RESULTS"
            }
          ]
        },
        "subject": {
          "reference": "Patient/6616e746-faef-ea4e-b061-591b28ebe5bc"
        },
        "result": [
          {
            "reference": "Observation/ebb2a555-9344-2f03-67a8-8ce2617b8c91"
          },
          {
            "reference": "Observation/fdbfca4b-5e1c-5c31-6135-706d9aae26eb"
          },
          {
            "reference": "Observation/8402b503-b85e-07fd-eaa5-a09e6f876062"
          }
        ]
      },
      "request": {
        "method": "PUT",
        "url": "DiagnosticReport/74e0d6b7-7b19-bf3e-4b4a-caa14de6f675"
      }
    },
    {
      "fullUrl": "urn:uuid:ebb2a555-9344-2f03-67a8-8ce2617b8c91",
      "resource": {
        "resourceType": "Observation",
        "id": "ebb2a555-9344-2f03-67a8-8ce2617b8c91",
        "meta": {
          "profile": [
            "http://hl7.org/fhir/us/ecr/StructureDefinition/us-ph-lab-result-observation"
          ]
        },
        "identifier": [
          {
            "system": "urn:oid:1.2.840.113619.21.1.139060385287897942.9",
            "value": "Observation/1906402110877440",
            "assigner": {
              "display": "31913-41995-12761042 API Resource Identifier"
            }
          }
        ],
        "category": [
          {
            "coding": [
              {
                "system": "http://terminology.hl7.org/CodeSystem/observation-category",
                "code": "laboratory"
              }
            ]
          }
        ],
        "status": "final",
        "code": {
          "coding": [
            {
              "code": "24111-7",
              "system": "http://loinc.org",
              "display": "Neisseria gonorrhoeae DNA [Presence] in Unspecified specimen by NAA with probe detection"
            },
            {
              "code": "2719",
              "system": "1.2.840.113619.21.100.12.1053.139060385287897942",
              "display": "GC DNA PROBE"
            }
          ],
          "text": "Neisseria gonorrhoeae DNA probe"
        },
        "effectiveDateTime": "2020-05-28T13:06:00-05:00",
        "valueString": "Negative",
        "referenceRange": [
          {
            "text": "Negative"
          }
        ],
        "subject": {
          "reference": "Patient/6616e746-faef-ea4e-b061-591b28ebe5bc"
        }
      },
      "request": {
        "method": "PUT",
        "url": "Observation/ebb2a555-9344-2f03-67a8-8ce2617b8c91"
      }
    },
    {
      "fullUrl": "urn:uuid:fdbfca4b-5e1c-5c31-6135-706d9aae26eb",
      "resource": {
        "resourceType": "Observation",
        "id": "fdbfca4b-5e1c-5c31-6135-706d9aae26eb",
        "meta": {
          "profile": [
            "http://hl7.org/fhir/us/ecr/StructureDefinition/us-ph-lab-result-observation"
          ]
        },
        "identifier": [
          {
            "system": "urn:oid:1.2.840.113619.21.1.139060385287897942.9",
            "value": "Observation/1906402110877420",
            "assigner": {
              "display": "31913-41995-12761042 API Resource Identifier"
            }
          }
        ],
        "category": [
          {
            "coding": [
              {
                "system": "http://terminology.hl7.org/CodeSystem/observation-category",
                "code": "laboratory"
              }
            ]
          }
        ],
        "status": "final",
        "code": {
          "coding": [
            {
              "code": "21613-5",
              "system": "http://loinc.org",
              "display": "Chlamydia trachomatis DNA [Presence] in Unspecified specimen by NAA with probe detection"
            },
            {
              "code": "14722",
              "system": "1.2.840.113619.21.100.12.1053.139060385287897942",
              "display": "CHLAMYD DNA"
            }
          ],
          "text": "chlamydia DNA probe"
        },
        "effectiveDateTime": "2020-05-28T13:06:00-05:00",
        "valueString": "Positive",
        "referenceRange": [
          {
            "text": "Negative"
          }
        ],
        "interpretation": [
          {
            "coding": [
              {
                "code": "A",
                "system": "http://terminology.hl7.org/CodeSystem/v3-ObservationInterpretation",
                "display": "Abnormal"
              }
            ],
            "text": "Abnormal"
          }
        ],
        "subject": {
          "reference": "Patient/6616e746-faef-ea4e-b061-591b28ebe5bc"
        }
      },
      "request": {
        "method": "PUT",
        "url": "Observation/fdbfca4b-5e1c-5c31-6135-706d9aae26eb"
      }
    },
    {
      "fullUrl": "urn:uuid:8402b503-b85e-07fd-eaa5-a09e6f876062",
      "resource": {
        "resourceType": "Observation",
        "id": "8402b503-b85e-07fd-eaa5-a09e6f876062",
        "meta": {
          "profile": [
            "http://hl7.org/fhir/us/ecr/StructureDefinition/us-ph-lab-result-observation"
          ]
        },
        "identifier": [
          {
            "system": "urn:oid:1.2.840.113619.21.1.139060385287897942.9",
            "value": "Observation/1906356481423570",
            "assigner": {
              "display": "31913-41995-12761042 API Resource Identifier"
            }
          }
        ],
        "category": [
          {
            "coding": [
              {
                "system": "http://terminology.hl7.org/CodeSystem/observation-category",
                "code": "laboratory"
              }
            ]
          }
        ],
        "status": "final",
        "code": {
          "coding": [
            {
              "code": "5291-0",
              "system": "http://loinc.org",
              "display": "Reagin Ab [Units/volume] in Serum by VDRL"
            },
            {
              "code": "308",
              "system": "1.2.840.113619.21.100.12.1053.139060385287897942",
              "display": "RPR"
            }
          ],
          "text": "rapid plasma reagin antibody, serum"
        },
        "effectiveDateTime": "2020-05-28T13:06:00-05:00",
        "valueString": "Non Reactive",
        "referenceRange": [
          {
            "text": "Non Reactive"
          }
        ],
        "subject": {
          "reference": "Patient/6616e746-faef-ea4e-b061-591b28ebe5bc"
        }
      },
      "request": {
        "method": "PUT",
        "url": "Observation/8402b503-b85e-07fd-eaa5-a09e6f876062"
      }
    },
    {
      "fullUrl": "urn:uuid:ca287c84-14b1-07ae-b5dc-b7c2166a550a",
      "resource": {
        "resourceType": "DiagnosticReport",
        "id": "ca287c84-14b1-07ae-b5dc-b7c2166a550a",
        "identifier": [
          {
            "system": "urn:oid:1.2.840.113619.21.1.139060385287897942.9",
            "value": "Observation/1901589219133720",
            "assigner": {
              "display": "31913-41995-12761042 API Resource Identifier"
            }
          }
        ],
        "status": "final",
        "code": {
          "coding": [
            {
              "code": "30954-2",
              "system": "http://loinc.org",
              "display": "RESULTS"
            }
          ]
        },
        "subject": {
          "reference": "Patient/6616e746-faef-ea4e-b061-591b28ebe5bc"
        },
        "result": [
          {
            "reference": "Observation/76d95afa-ddbc-b0f8-5063-abcab50fd886"
          },
          {
            "reference": "Observation/9f2fb95a-68fd-a730-5cdb-ee7783133cda"
          }
        ]
      },
      "request": {
        "method": "PUT",
        "url": "DiagnosticReport/ca287c84-14b1-07ae-b5dc-b7c2166a550a"
      }
    },
    {
      "fullUrl": "urn:uuid:76d95afa-ddbc-b0f8-5063-abcab50fd886",
      "resource": {
        "resourceType": "Observation",
        "id": "76d95afa-ddbc-b0f8-5063-abcab50fd886",
        "meta": {
          "profile": [
            "http://hl7.org/fhir/us/ecr/StructureDefinition/us-ph-lab-result-observation"
          ]
        },
        "identifier": [
          {
            "system": "urn:oid:1.2.840.113619.21.1.139060385287897942.9",
            "value": "Observation/1901589219133720",
            "assigner": {
              "display": "31913-41995-12761042 API Resource Identifier"
            }
          }
        ],
        "category": [
          {
            "coding": [
              {
                "system": "http://terminology.hl7.org/CodeSystem/observation-category",
                "code": "laboratory"
              }
            ]
          }
        ],
        "status": "final",
        "code": {
          "coding": [
            {
              "code": "24111-7",
              "system": "http://loinc.org",
              "display": "Neisseria gonorrhoeae DNA [Presence] in Unspecified specimen by NAA with probe detection"
            },
            {
              "code": "2719",
              "system": "1.2.840.113619.21.100.12.1053.139060385287897942",
              "display": "GC DNA PROBE"
            }
          ],
          "text": "Neisseria gonorrhoeae DNA probe"
        },
        "effectiveDateTime": "2020-04-02T11:19:00-05:00",
        "valueString": "Negative",
        "referenceRange": [
          {
            "text": "Negative"
          }
        ],
        "subject": {
          "reference": "Patient/6616e746-faef-ea4e-b061-591b28ebe5bc"
        }
      },
      "request": {
        "method": "PUT",
        "url": "Observation/76d95afa-ddbc-b0f8-5063-abcab50fd886"
      }
    },
    {
      "fullUrl": "urn:uuid:9f2fb95a-68fd-a730-5cdb-ee7783133cda",
      "resource": {
        "resourceType": "Observation",
        "id": "9f2fb95a-68fd-a730-5cdb-ee7783133cda",
        "meta": {
          "profile": [
            "http://hl7.org/fhir/us/ecr/StructureDefinition/us-ph-lab-result-observation"
          ]
        },
        "identifier": [
          {
            "system": "urn:oid:1.2.840.113619.21.1.139060385287897942.9",
            "value": "Observation/1901589219133700",
            "assigner": {
              "display": "31913-41995-12761042 API Resource Identifier"
            }
          }
        ],
        "category": [
          {
            "coding": [
              {
                "system": "http://terminology.hl7.org/CodeSystem/observation-category",
                "code": "laboratory"
              }
            ]
          }
        ],
        "status": "final",
        "code": {
          "coding": [
            {
              "code": "21613-5",
              "system": "http://loinc.org",
              "display": "Chlamydia trachomatis DNA [Presence] in Unspecified specimen by NAA with probe detection"
            },
            {
              "code": "14722",
              "system": "1.2.840.113619.21.100.12.1053.139060385287897942",
              "display": "CHLAMYD DNA"
            }
          ],
          "text": "chlamydia DNA probe"
        },
        "effectiveDateTime": "2020-04-02T11:19:00-05:00",
        "valueString": "Negative",
        "referenceRange": [
          {
            "text": "Negative"
          }
        ],
        "subject": {
          "reference": "Patient/6616e746-faef-ea4e-b061-591b28ebe5bc"
        }
      },
      "request": {
        "method": "PUT",
        "url": "Observation/9f2fb95a-68fd-a730-5cdb-ee7783133cda"
      }
    },
    {
      "fullUrl": "urn:uuid:3b9943b6-3fa4-99dc-9b00-306f35873a55",
      "resource": {
        "resourceType": "DiagnosticReport",
        "id": "3b9943b6-3fa4-99dc-9b00-306f35873a55",
        "identifier": [
          {
            "system": "urn:oid:1.2.840.113619.21.1.139060385287897942.9",
            "value": "Observation/1901428981111990",
            "assigner": {
              "display": "31913-41995-12761042 API Resource Identifier"
            }
          }
        ],
        "status": "final",
        "code": {
          "coding": [
            {
              "code": "30954-2",
              "system": "http://loinc.org",
              "display": "RESULTS"
            }
          ]
        },
        "subject": {
          "reference": "Patient/6616e746-faef-ea4e-b061-591b28ebe5bc"
        },
        "result": [
          {
            "reference": "Observation/4b6f5f27-82f3-037b-c3b6-d35b0ce41de6"
          }
        ]
      },
      "request": {
        "method": "PUT",
        "url": "DiagnosticReport/3b9943b6-3fa4-99dc-9b00-306f35873a55"
      }
    },
    {
      "fullUrl": "urn:uuid:4b6f5f27-82f3-037b-c3b6-d35b0ce41de6",
      "resource": {
        "resourceType": "Observation",
        "id": "4b6f5f27-82f3-037b-c3b6-d35b0ce41de6",
        "meta": {
          "profile": [
            "http://hl7.org/fhir/us/ecr/StructureDefinition/us-ph-lab-result-observation"
          ]
        },
        "identifier": [
          {
            "system": "urn:oid:1.2.840.113619.21.1.139060385287897942.9",
            "value": "Observation/1901428981111990",
            "assigner": {
              "display": "31913-41995-12761042 API Resource Identifier"
            }
          }
        ],
        "category": [
          {
            "coding": [
              {
                "system": "http://terminology.hl7.org/CodeSystem/observation-category",
                "code": "laboratory"
              }
            ]
          }
        ],
        "status": "final",
        "code": {
          "coding": [
            {
              "code": "5291-0",
              "system": "http://loinc.org",
              "display": "Reagin Ab [Units/volume] in Serum by VDRL"
            },
            {
              "code": "308",
              "system": "1.2.840.113619.21.100.12.1053.139060385287897942",
              "display": "RPR"
            }
          ],
          "text": "rapid plasma reagin antibody, serum"
        },
        "effectiveDateTime": "2020-04-01T13:42:00-05:00",
        "valueString": "Non Reactive",
        "referenceRange": [
          {
            "text": "Non Reactive"
          }
        ],
        "subject": {
          "reference": "Patient/6616e746-faef-ea4e-b061-591b28ebe5bc"
        }
      },
      "request": {
        "method": "PUT",
        "url": "Observation/4b6f5f27-82f3-037b-c3b6-d35b0ce41de6"
      }
    },
    {
      "fullUrl": "urn:uuid:73d8a817-0482-6fa8-6ddf-7bb73d3fd347",
      "resource": {
        "resourceType": "Observation",
        "id": "73d8a817-0482-6fa8-6ddf-7bb73d3fd347",
        "meta": {
          "profile": [
            "http://hl7.org/fhir/StructureDefinition/Observation"
          ]
        },
        "identifier": [
          {
            "system": "urn:oid:1.2.840.113619.21.1.139060385287897942.9",
            "value": "Observation/1906470667349480",
            "assigner": {
              "display": "31913-41995-12761042 API Resource Identifier"
            }
          }
        ],
        "category": [
          {
            "coding": [
              {
                "system": "http://terminology.hl7.org/CodeSystem/observation-category",
                "code": "social-history"
              }
            ]
          }
        ],
        "status": "final",
        "code": {
          "coding": [
            {
              "code": "360265",
              "system": "1.2.840.113619.21.100.12.1053.139060385287897942",
              "display": "TIME OF CALL"
            },
            {
              "system": "1.2.840.113619.21.100.12.1053.139060385287897942"
            }
          ],
          "text": "time of call"
        },
        "effectiveDateTime": "2020-05-30T15:11:07-05:00",
        "valueString": "05/30/2020 3:13 PM",
        "subject": {
          "reference": "Patient/6616e746-faef-ea4e-b061-591b28ebe5bc"
        }
      },
      "request": {
        "method": "PUT",
        "url": "Observation/73d8a817-0482-6fa8-6ddf-7bb73d3fd347"
      }
    },
    {
      "fullUrl": "urn:uuid:da2f0979-1c9c-07cd-8f43-419f393ea92e",
      "resource": {
        "resourceType": "Observation",
        "id": "da2f0979-1c9c-07cd-8f43-419f393ea92e",
        "meta": {
          "profile": [
            "http://hl7.org/fhir/StructureDefinition/Observation"
          ]
        },
        "identifier": [
          {
            "system": "urn:oid:1.2.840.113619.21.1.139060385287897942.9",
            "value": "Observation/1906299545049460",
            "assigner": {
              "display": "31913-41995-12761042 API Resource Identifier"
            }
          }
        ],
        "category": [
          {
            "coding": [
              {
                "system": "http://terminology.hl7.org/CodeSystem/observation-category",
                "code": "social-history"
              }
            ]
          }
        ],
        "status": "final",
        "code": {
          "coding": [
            {
              "code": "4768",
              "system": "1.2.840.113619.21.100.12.1053.139060385287897942",
              "display": "SH REVIEWED"
            },
            {
              "system": "1.2.840.113619.21.100.12.1053.139060385287897942"
            }
          ],
          "text": "social history reviewed E&M"
        },
        "effectiveDateTime": "2020-05-28T12:54:38-05:00",
        "valueString": "reviewed today",
        "subject": {
          "reference": "Patient/6616e746-faef-ea4e-b061-591b28ebe5bc"
        }
      },
      "request": {
        "method": "PUT",
        "url": "Observation/da2f0979-1c9c-07cd-8f43-419f393ea92e"
      }
    },
    {
      "fullUrl": "urn:uuid:1a9819c6-c4e8-ce52-15cf-9a87cda20f98",
      "resource": {
        "resourceType": "Observation",
        "id": "1a9819c6-c4e8-ce52-15cf-9a87cda20f98",
        "meta": {
          "profile": [
            "http://hl7.org/fhir/StructureDefinition/Observation"
          ]
        },
        "identifier": [
          {
            "system": "urn:oid:1.2.840.113619.21.1.139060385287897942.9",
            "value": "Observation/1906289791595780",
            "assigner": {
              "display": "31913-41995-12761042 API Resource Identifier"
            }
          }
        ],
        "category": [
          {
            "coding": [
              {
                "system": "http://terminology.hl7.org/CodeSystem/observation-category",
                "code": "social-history"
              }
            ]
          }
        ],
        "status": "final",
        "code": {
          "coding": [
            {
              "code": "502889",
              "system": "1.2.840.113619.21.100.12.1053.139060385287897942",
              "display": "ASSMTHLTLTRY"
            },
            {
              "system": "1.2.840.113619.21.100.12.1053.139060385287897942"
            }
          ],
          "text": "assessment of health literacy (NCQA PCMH 2014 Standards, 3C10)"
        },
        "effectiveDateTime": "2020-05-28T12:54:38-05:00",
        "valueString": "Adequate",
        "subject": {
          "reference": "Patient/6616e746-faef-ea4e-b061-591b28ebe5bc"
        }
      },
      "request": {
        "method": "PUT",
        "url": "Observation/1a9819c6-c4e8-ce52-15cf-9a87cda20f98"
      }
    },
    {
      "fullUrl": "urn:uuid:15e161ed-7f2f-f876-3ec2-1c78105b8ca6",
      "resource": {
        "resourceType": "Observation",
        "id": "15e161ed-7f2f-f876-3ec2-1c78105b8ca6",
        "meta": {
          "profile": [
            "http://hl7.org/fhir/StructureDefinition/Observation"
          ]
        },
        "identifier": [
          {
            "system": "urn:oid:1.2.840.113619.21.1.139060385287897942.9",
            "value": "Observation/1906289791595680",
            "assigner": {
              "display": "31913-41995-12761042 API Resource Identifier"
            }
          }
        ],
        "category": [
          {
            "coding": [
              {
                "system": "http://terminology.hl7.org/CodeSystem/observation-category",
                "code": "social-history"
              }
            ]
          }
        ],
        "status": "final",
        "code": {
          "coding": [
            {
              "code": "229819007",
              "system": "http://snomed.info/sct",
              "display": "Tobacco use and exposure"
            },
            {
              "code": "2739",
              "system": "1.2.840.113619.21.100.12.1053.139060385287897942",
              "display": "PAS CIG SMOK"
            }
          ],
          "text": "passive cigarette smoke exposure"
        },
        "effectiveDateTime": "2020-05-28T12:54:38-05:00",
        "valueString": "No",
        "subject": {
          "reference": "Patient/6616e746-faef-ea4e-b061-591b28ebe5bc"
        }
      },
      "request": {
        "method": "PUT",
        "url": "Observation/15e161ed-7f2f-f876-3ec2-1c78105b8ca6"
      }
    },
    {
      "fullUrl": "urn:uuid:79115c06-b377-8691-d5ac-22f2f19bc03c",
      "resource": {
        "resourceType": "Observation",
        "id": "79115c06-b377-8691-d5ac-22f2f19bc03c",
        "meta": {
          "profile": [
            "http://hl7.org/fhir/StructureDefinition/Observation"
          ]
        },
        "identifier": [
          {
            "system": "urn:oid:1.2.840.113619.21.1.139060385287897942.9",
            "value": "Observation/1906289693592560",
            "assigner": {
              "display": "31913-41995-12761042 API Resource Identifier"
            }
          }
        ],
        "category": [
          {
            "coding": [
              {
                "system": "http://terminology.hl7.org/CodeSystem/observation-category",
                "code": "social-history"
              }
            ]
          }
        ],
        "status": "final",
        "code": {
          "coding": [
            {
              "code": "549318",
              "system": "1.2.840.113619.21.100.12.1053.139060385287897942",
              "display": "VAPE_USE"
            },
            {
              "system": "1.2.840.113619.21.100.12.1053.139060385287897942"
            }
          ],
          "text": "if the patient is using/has used a vaping item, Current, Former, Never Used, Not asked"
        },
        "effectiveDateTime": "2020-05-28T12:54:38-05:00",
        "valueString": "No",
        "subject": {
          "reference": "Patient/6616e746-faef-ea4e-b061-591b28ebe5bc"
        }
      },
      "request": {
        "method": "PUT",
        "url": "Observation/79115c06-b377-8691-d5ac-22f2f19bc03c"
      }
    },
    {
      "fullUrl": "urn:uuid:3e756f27-9115-6dbd-f856-1bb8cdee4fc1",
      "resource": {
        "resourceType": "Observation",
        "id": "3e756f27-9115-6dbd-f856-1bb8cdee4fc1",
        "meta": {
          "profile": [
            "http://hl7.org/fhir/StructureDefinition/Observation"
          ]
        },
        "identifier": [
          {
            "system": "urn:oid:1.2.840.113619.21.1.139060385287897942.9",
            "value": "Observation/1906289693592520",
            "assigner": {
              "display": "31913-41995-12761042 API Resource Identifier"
            }
          }
        ],
        "category": [
          {
            "coding": [
              {
                "system": "http://terminology.hl7.org/CodeSystem/observation-category",
                "code": "social-history"
              }
            ]
          }
        ],
        "status": "final",
        "code": {
          "coding": [
            {
              "code": "72166-2",
              "system": "http://loinc.org",
              "display": "Tobacco smoking status NHIS"
            },
            {
              "code": "11366-2",
              "system": "http://loinc.org",
              "display": "History of tobacco use Narrative"
            },
            {
              "code": "229819007",
              "system": "http://snomed.info/sct",
              "display": "Tobacco use and exposure"
            },
            {
              "code": "300015",
              "system": "1.2.840.113619.21.100.12.1053.139060385287897942",
              "display": "SMOK STATUS"
            }
          ],
          "text": "smoking status"
        },
        "effectiveDateTime": "2020-05-28T12:54:38-05:00",
        "valueCodeableConcept": {
          "coding": [
            {
              "code": "266919005",
              "system": "http://snomed.info/sct",
              "display": "Never smoked tobacco (finding)"
            },
            {
              "code": "72166-2",
              "system": "http://loinc.org",
              "display": "Tobacco smoking status NHIS"
            }
          ],
          "text": "never smoker"
        },
        "subject": {
          "reference": "Patient/6616e746-faef-ea4e-b061-591b28ebe5bc"
        }
      },
      "request": {
        "method": "PUT",
        "url": "Observation/3e756f27-9115-6dbd-f856-1bb8cdee4fc1"
      }
    },
    {
      "fullUrl": "urn:uuid:92849a01-2954-a14d-d321-a3a525206507",
      "resource": {
        "resourceType": "Observation",
        "id": "92849a01-2954-a14d-d321-a3a525206507",
        "meta": {
          "profile": [
            "http://hl7.org/fhir/StructureDefinition/Observation"
          ]
        },
        "identifier": [
          {
            "system": "urn:oid:1.2.840.113619.21.1.139060385287897942.9",
            "value": "Observation/1901366865382030",
            "assigner": {
              "display": "31913-41995-12761042 API Resource Identifier"
            }
          }
        ],
        "category": [
          {
            "coding": [
              {
                "system": "http://terminology.hl7.org/CodeSystem/observation-category",
                "code": "social-history"
              }
            ]
          }
        ],
        "status": "final",
        "code": {
          "coding": [
            {
              "code": "418494",
              "system": "1.2.840.113619.21.100.12.1053.139060385287897942",
              "display": "CHANCEPREGN"
            },
            {
              "system": "1.2.840.113619.21.100.12.1053.139060385287897942"
            }
          ],
          "text": "is there any chance that you could be pregnant?"
        },
        "effectiveDateTime": "2020-04-01T13:25:31-05:00",
        "valueString": "No",
        "subject": {
          "reference": "Patient/6616e746-faef-ea4e-b061-591b28ebe5bc"
        }
      },
      "request": {
        "method": "PUT",
        "url": "Observation/92849a01-2954-a14d-d321-a3a525206507"
      }
    },
    {
      "fullUrl": "urn:uuid:cfa02ebb-cdb8-d512-b422-3a3c8d3fdf51",
      "resource": {
        "resourceType": "Observation",
        "id": "cfa02ebb-cdb8-d512-b422-3a3c8d3fdf51",
        "meta": {
          "profile": [
            "http://hl7.org/fhir/StructureDefinition/Observation"
          ]
        },
        "identifier": [
          {
            "system": "urn:oid:1.2.840.113619.21.1.139060385287897942.9",
            "value": "Observation/1901366865381990",
            "assigner": {
              "display": "31913-41995-12761042 API Resource Identifier"
            }
          }
        ],
        "category": [
          {
            "coding": [
              {
                "system": "http://terminology.hl7.org/CodeSystem/observation-category",
                "code": "social-history"
              }
            ]
          }
        ],
        "status": "final",
        "code": {
          "coding": [
            {
              "code": "502889",
              "system": "1.2.840.113619.21.100.12.1053.139060385287897942",
              "display": "ASSMTHLTLTRY"
            },
            {
              "system": "1.2.840.113619.21.100.12.1053.139060385287897942"
            }
          ],
          "text": "assessment of health literacy (NCQA PCMH 2014 Standards, 3C10)"
        },
        "effectiveDateTime": "2020-04-01T13:25:31-05:00",
        "valueString": "Adequate",
        "subject": {
          "reference": "Patient/6616e746-faef-ea4e-b061-591b28ebe5bc"
        }
      },
      "request": {
        "method": "PUT",
        "url": "Observation/cfa02ebb-cdb8-d512-b422-3a3c8d3fdf51"
      }
    },
    {
      "fullUrl": "urn:uuid:94906333-ce8d-bdde-0b02-4b3af3a7c9c9",
      "resource": {
        "resourceType": "Observation",
        "id": "94906333-ce8d-bdde-0b02-4b3af3a7c9c9",
        "meta": {
          "profile": [
            "http://hl7.org/fhir/StructureDefinition/Observation"
          ]
        },
        "identifier": [
          {
            "system": "urn:oid:1.2.840.113619.21.1.139060385287897942.9",
            "value": "Observation/1901366847380990",
            "assigner": {
              "display": "31913-41995-12761042 API Resource Identifier"
            }
          }
        ],
        "category": [
          {
            "coding": [
              {
                "system": "http://terminology.hl7.org/CodeSystem/observation-category",
                "code": "social-history"
              }
            ]
          }
        ],
        "status": "final",
        "code": {
          "coding": [
            {
              "code": "229819007",
              "system": "http://snomed.info/sct",
              "display": "Tobacco use and exposure"
            },
            {
              "code": "2739",
              "system": "1.2.840.113619.21.100.12.1053.139060385287897942",
              "display": "PAS CIG SMOK"
            }
          ],
          "text": "passive cigarette smoke exposure"
        },
        "effectiveDateTime": "2020-04-01T13:25:31-05:00",
        "valueString": "No",
        "subject": {
          "reference": "Patient/6616e746-faef-ea4e-b061-591b28ebe5bc"
        }
      },
      "request": {
        "method": "PUT",
        "url": "Observation/94906333-ce8d-bdde-0b02-4b3af3a7c9c9"
      }
    },
    {
      "fullUrl": "urn:uuid:f6120a4f-a10a-5cf9-cf9c-5a6ab8f32880",
      "resource": {
        "resourceType": "Observation",
        "id": "f6120a4f-a10a-5cf9-cf9c-5a6ab8f32880",
        "meta": {
          "profile": [
            "http://hl7.org/fhir/StructureDefinition/Observation"
          ]
        },
        "identifier": [
          {
            "system": "urn:oid:1.2.840.113619.21.1.139060385287897942.9",
            "value": "Observation/1901366847380970",
            "assigner": {
              "display": "31913-41995-12761042 API Resource Identifier"
            }
          }
        ],
        "category": [
          {
            "coding": [
              {
                "system": "http://terminology.hl7.org/CodeSystem/observation-category",
                "code": "social-history"
              }
            ]
          }
        ],
        "status": "final",
        "code": {
          "coding": [
            {
              "code": "549318",
              "system": "1.2.840.113619.21.100.12.1053.139060385287897942",
              "display": "VAPE_USE"
            },
            {
              "system": "1.2.840.113619.21.100.12.1053.139060385287897942"
            }
          ],
          "text": "if the patient is using/has used a vaping item, Current, Former, Never Used, Not asked"
        },
        "effectiveDateTime": "2020-04-01T13:25:31-05:00",
        "valueString": "No",
        "subject": {
          "reference": "Patient/6616e746-faef-ea4e-b061-591b28ebe5bc"
        }
      },
      "request": {
        "method": "PUT",
        "url": "Observation/f6120a4f-a10a-5cf9-cf9c-5a6ab8f32880"
      }
    },
    {
      "fullUrl": "urn:uuid:8c3f83a8-09aa-9915-0bac-b90d7fb9b001",
      "resource": {
        "resourceType": "Observation",
        "id": "8c3f83a8-09aa-9915-0bac-b90d7fb9b001",
        "meta": {
          "profile": [
            "http://hl7.org/fhir/StructureDefinition/Observation"
          ]
        },
        "identifier": [
          {
            "system": "urn:oid:1.2.840.113619.21.1.139060385287897942.9",
            "value": "Observation/1901366814376910",
            "assigner": {
              "display": "31913-41995-12761042 API Resource Identifier"
            }
          }
        ],
        "category": [
          {
            "coding": [
              {
                "system": "http://terminology.hl7.org/CodeSystem/observation-category",
                "code": "social-history"
              }
            ]
          }
        ],
        "status": "final",
        "code": {
          "coding": [
            {
              "code": "72166-2",
              "system": "http://loinc.org",
              "display": "Tobacco smoking status NHIS"
            },
            {
              "code": "11366-2",
              "system": "http://loinc.org",
              "display": "History of tobacco use Narrative"
            },
            {
              "code": "229819007",
              "system": "http://snomed.info/sct",
              "display": "Tobacco use and exposure"
            },
            {
              "code": "300015",
              "system": "1.2.840.113619.21.100.12.1053.139060385287897942",
              "display": "SMOK STATUS"
            }
          ],
          "text": "smoking status"
        },
        "effectiveDateTime": "2020-04-01T13:25:31-05:00",
        "valueCodeableConcept": {
          "coding": [
            {
              "code": "266919005",
              "system": "http://snomed.info/sct",
              "display": "Never smoked tobacco (finding)"
            },
            {
              "code": "72166-2",
              "system": "http://loinc.org",
              "display": "Tobacco smoking status NHIS"
            }
          ],
          "text": "never smoker"
        },
        "subject": {
          "reference": "Patient/6616e746-faef-ea4e-b061-591b28ebe5bc"
        }
      },
      "request": {
        "method": "PUT",
        "url": "Observation/8c3f83a8-09aa-9915-0bac-b90d7fb9b001"
      }
    },
    {
      "fullUrl": "urn:uuid:6992c790-8098-4f96-296e-6bc1b3eafb57",
      "resource": {
        "resourceType": "Observation",
        "id": "6992c790-8098-4f96-296e-6bc1b3eafb57",
        "meta": {
          "profile": [
            "http://hl7.org/fhir/StructureDefinition/Observation"
          ]
        },
        "identifier": [
          {
            "system": "urn:oid:1.2.840.113619.21.1.139060385287897942.9",
            "value": "Observation/1901366814376790",
            "assigner": {
              "display": "31913-41995-12761042 API Resource Identifier"
            }
          }
        ],
        "category": [
          {
            "coding": [
              {
                "system": "http://terminology.hl7.org/CodeSystem/observation-category",
                "code": "social-history"
              }
            ]
          }
        ],
        "status": "final",
        "code": {
          "coding": [
            {
              "code": "304549008",
              "system": "http://snomed.info/sct",
              "display": "Giving encouragement to exercise (procedure)"
            },
            {
              "code": "156247",
              "system": "1.2.840.113619.21.100.12.1053.139060385287897942",
              "display": "EXERPRG REF"
            }
          ],
          "text": "Exercise Program Referral"
        },
        "effectiveDateTime": "2020-04-01T13:25:31-05:00",
        "valueString": "T",
        "subject": {
          "reference": "Patient/6616e746-faef-ea4e-b061-591b28ebe5bc"
        }
      },
      "request": {
        "method": "PUT",
        "url": "Observation/6992c790-8098-4f96-296e-6bc1b3eafb57"
      }
    },
    {
      "fullUrl": "urn:uuid:0f7581e2-d554-8ed5-993b-01b75d376291",
      "resource": {
        "resourceType": "Observation",
        "id": "0f7581e2-d554-8ed5-993b-01b75d376291",
        "meta": {
          "profile": [
            "http://hl7.org/fhir/StructureDefinition/Observation"
          ]
        },
        "identifier": [
          {
            "system": "urn:oid:1.2.840.113619.21.1.139060385287897942.9",
            "value": "Observation/1901366814376770",
            "assigner": {
              "display": "31913-41995-12761042 API Resource Identifier"
            }
          }
        ],
        "category": [
          {
            "coding": [
              {
                "system": "http://terminology.hl7.org/CodeSystem/observation-category",
                "code": "social-history"
              }
            ]
          }
        ],
        "status": "final",
        "code": {
          "coding": [
            {
              "code": "156251",
              "system": "1.2.840.113619.21.100.12.1053.139060385287897942",
              "display": "WGTMGMTCOUNS"
            },
            {
              "system": "1.2.840.113619.21.100.12.1053.139060385287897942"
            }
          ],
          "text": "Weight Management Counseling Provided"
        },
        "effectiveDateTime": "2020-04-01T13:25:31-05:00",
        "valueString": "T",
        "subject": {
          "reference": "Patient/6616e746-faef-ea4e-b061-591b28ebe5bc"
        }
      },
      "request": {
        "method": "PUT",
        "url": "Observation/0f7581e2-d554-8ed5-993b-01b75d376291"
      }
    },
    {
      "fullUrl": "urn:uuid:8b335e3e-f167-c345-a80d-3128f9bbfb47",
      "resource": {
        "resourceType": "Observation",
        "id": "8b335e3e-f167-c345-a80d-3128f9bbfb47",
        "meta": {
          "profile": [
            "http://hl7.org/fhir/StructureDefinition/Observation"
          ]
        },
        "identifier": [
          {
            "system": "urn:oid:1.2.840.113619.21.1.139060385287897942.9",
            "value": "Observation/1901366814376750",
            "assigner": {
              "display": "31913-41995-12761042 API Resource Identifier"
            }
          }
        ],
        "category": [
          {
            "coding": [
              {
                "system": "http://terminology.hl7.org/CodeSystem/observation-category",
                "code": "social-history"
              }
            ]
          }
        ],
        "status": "final",
        "code": {
          "coding": [
            {
              "code": "241375",
              "system": "1.2.840.113619.21.100.12.1053.139060385287897942",
              "display": "NUTRITIONIVN"
            },
            {
              "system": "1.2.840.113619.21.100.12.1053.139060385287897942"
            }
          ],
          "text": "Nutrition intervention"
        },
        "effectiveDateTime": "2020-04-01T13:25:31-05:00",
        "valueString": "T",
        "subject": {
          "reference": "Patient/6616e746-faef-ea4e-b061-591b28ebe5bc"
        }
      },
      "request": {
        "method": "PUT",
        "url": "Observation/8b335e3e-f167-c345-a80d-3128f9bbfb47"
      }
    },
    {
      "fullUrl": "urn:uuid:d88b809b-2226-79c9-e3c7-4759c834530b",
      "resource": {
        "resourceType": "Observation",
        "id": "d88b809b-2226-79c9-e3c7-4759c834530b",
        "meta": {
          "profile": [
            "http://hl7.org/fhir/StructureDefinition/Observation"
          ]
        },
        "identifier": [
          {
            "system": "urn:oid:1.2.840.113619.21.1.139060385287897942.9",
            "value": "Observation/1901360965172990",
            "assigner": {
              "display": "31913-41995-12761042 API Resource Identifier"
            }
          }
        ],
        "category": [
          {
            "coding": [
              {
                "system": "http://terminology.hl7.org/CodeSystem/observation-category",
                "code": "social-history"
              }
            ]
          }
        ],
        "status": "final",
        "code": {
          "coding": [
            {
              "code": "360265",
              "system": "1.2.840.113619.21.100.12.1053.139060385287897942",
              "display": "TIME OF CALL"
            },
            {
              "system": "1.2.840.113619.21.100.12.1053.139060385287897942"
            }
          ],
          "text": "time of call"
        },
        "effectiveDateTime": "2020-04-01T11:49:26-05:00",
        "valueString": "04/01/2020 11:49 AM",
        "subject": {
          "reference": "Patient/6616e746-faef-ea4e-b061-591b28ebe5bc"
        }
      },
      "request": {
        "method": "PUT",
        "url": "Observation/d88b809b-2226-79c9-e3c7-4759c834530b"
      }
    }
  ]
}
}