{
  "Status": "OK",
  "FhirResource": {
  "resourceType": "Bundle",
  "type": "batch",
  "entry": [
    {
      "fullUrl": "1906844699671550",
      "resource": {
        "resourceType": "Composition",
        "id": "1906844699671550",
        "meta": {
          "profile": [
            "http://hl7.org/fhir/us/ecr/StructureDefinition/eicr-composition"
          ]
        },
        "identifier": {
          "use": "official",
          "type": {
            "coding": [
              {
                "code": "55751-2",
                "system": "http://loinc.org",
                "display": "Initial Public Health Case Report"
              }
            ]
          }
        },
        "extension": [
          {
            "url": "http://hl7.org/fhir/StructureDefinition/composition-clinicaldocument-versionNumber"
          },
          {
            "url": "https://www.hl7.org/implement/standards/product_brief.cfm?product_id=436",
            "valueString": "2016-12-01"
          }
        ],
        "status": "final",
        "type": {
          "coding": [
            {
              "code": "55751-2",
              "system": "http://loinc.org",
              "display": "Initial Public Health Case Report"
            }
          ]
        },
        "date": "2020-06-03T23:05:04-05:00",
        "title": "Initial Public Health Case Report",
        "confidentiality": "N",
        "event": [
          {
            "period": {
              "start": "2020-06-03T23:05:04-05:00"
            }
          }
        ],
        "section": [
          {
            "id": "c9769a0f-87d9-d306-3464-f9ae86526e32",
            "title": "HISTORY OF PRESENT ILLNESS",
            "text": {
              "status": "generated",
              "div": "IUD surveillance - New 1) Annual exam and IUD check set in 6 weeks. - tolerating IUD well, Yeast infection - New 1) Annual exam and IUD check set in 6 weeks. - tolerating IUD well, extended (4 or more elements), SB is here for vaginitis check adn sTI check. she is sexually active iwth one partner, using condoms but desires STI testing. She has history of Chlamydia. She has white thick vaignal disharge with irritation for 4 days, no odor, no pelvic pain. No vaignal lesions or history of HSV. She has a copper IUD in place and has a regular cycle Q 4 weeks, no spotting in between. No urinary symptoms or bowel symptomsNo CP, SOB, cough, Wheezing or ill contacts, No, No, No, No, No"
            },
            "code": {
              "coding": [
                {
                  "code": "10164-2",
                  "system": "http://loinc.org",
                  "display": "HISTORY OF PRESENT ILLNESS"
                }
              ]
            },
            "mode": "snapshot"
          },
          {
            "id": "39a1a30f-12ac-962b-5fc4-4ac80e127c62",
            "title": "REASON FOR VISIT",
            "text": {
              "status": "generated",
              "div": "std check, discharge"
            },
            "code": {
              "coding": [
                {
                  "code": "29299-5",
                  "system": "http://loinc.org",
                  "display": "REASON FOR VISIT"
                }
              ]
            },
            "mode": "snapshot",
            "extension": [
              {
                "url": "http://hl7.org/fhir/cda/ccda/StructureDefinition/2.16.840.1.113883.10.20.22.2.12",
                "valueString": "std check, discharge"
              }
            ]
          },
          {
            "id": "3a9324ba-9b02-7bad-ef19-70e9ae6811a2",
            "title": "SOCIAL HISTORY",
            "text": {
              "status": "generated",
              "div": "<table border=\"1\" width=\"100%\" xmlns=\"urn:hl7-org:v3\"><thead><tr><th align=\"left\">Date</th><th align=\"left\">Observation</th><th align=\"left\">Value</th><th align=\"left\">Provider</th></tr></thead><tbody><tr ID=\"d58984e13-1.2.840.113619.21.1.139060385287897942.10.1591243504355.281177\"><td align=\"left\">2020/06/01</td><td>passive cigarette smoke exposure</td><td>No</td><td>Katrina Lee </td></tr><tr ID=\"d58984e195-1.2.840.113619.21.1.139060385287897942.10.1591243504355.281177\"><td align=\"center\">\"</td><td>if the patient is using/has used a vaping item, Current, Former, Never Used, Not asked</td><td>No</td><td>Katrina Lee </td></tr><tr ID=\"d58984e282-1.2.840.113619.21.1.139060385287897942.10.1591243504355.281177\"><td align=\"center\">\"</td><td>Exercise Program Referral</td><td>T</td><td>Katrina Lee </td></tr><tr ID=\"d58984e373-1.2.840.113619.21.1.139060385287897942.10.1591243504355.281177\"><td align=\"center\">\"</td><td>Weight Management Counseling Provided</td><td>T</td><td>Katrina Lee </td></tr><tr ID=\"d58984e460-1.2.840.113619.21.1.139060385287897942.10.1591243504355.281177\"><td align=\"center\">\"</td><td>Nutrition intervention</td><td>T</td><td>Katrina Lee </td></tr><tr ID=\"d58984e548-1.2.840.113619.21.1.139060385287897942.10.1591243504355.281177\"><td align=\"center\">\"</td><td>is there any chance that you could be pregnant?</td><td>No</td><td>Katrina Lee </td></tr><tr ID=\"d58984e635-1.2.840.113619.21.1.139060385287897942.10.1591243504355.281177\"><td align=\"center\">\"</td><td>smoking status</td><td>never smoker</td><td>Katrina Lee </td></tr></tbody></table>"
            },
            "code": {
              "coding": [
                {
                  "code": "29762-2",
                  "system": "http://loinc.org",
                  "display": "SOCIAL HISTORY"
                }
              ]
            },
            "mode": "snapshot",
            "entry": [
              {
                "reference": "Observation/083f1c77-a016-cfd0-9105-52ebd20a4785"
              },
              {
                "reference": "Observation/b7f29426-0a67-1918-fbf5-cd2676e31675"
              },
              {
                "reference": "Observation/e52fd7f3-4a61-ab5c-d7e1-b76ad6af323a"
              },
              {
                "reference": "Observation/3d6ef05b-267f-c1d2-3e4e-f4988926efc4"
              },
              {
                "reference": "Observation/18f7fcf4-4cb1-76a3-d858-c5c2104975d2"
              },
              {
                "reference": "Observation/2bc72df2-9418-2389-e6b4-5122468d9ff7"
              },
              {
                "reference": "Observation/a0e00b3c-e248-6f10-1c37-5782ba3cdb2b"
              }
            ]
          },
          {
            "id": "30a478c2-7402-539c-4ddc-515faa571696",
            "title": "ENCOUNTERS",
            "text": {
              "status": "generated",
              "div": "<table border=\"1\" width=\"100%\" xmlns=\"urn:hl7-org:v3\"><thead><tr><th align=\"left\">Date</th><th align=\"left\">Type</th><th align=\"left\">Provider</th><th align=\"left\">Location</th><th align=\"left\">Encounter Diagnosis</th></tr></thead><tbody><tr ID=\"d58931e13-1.2.840.113619.21.1.139060385287897942.10.1591243504308.98098\"><td>2020/06/01 - 2020/06/01</td><td>Consent Forms</td><td><list listType=\"unordered\"><item>Registration NNHSC Desktop </item><item>LinkLogic </item></list></td><td>Komed Holman Health Center</td><td>UNK</td></tr><tr ID=\"d58931e101-1.2.840.113619.21.1.139060385287897942.10.1591243504308.98098\"><td>2020/06/01 - 2020/06/01</td><td>Consent Forms</td><td><list listType=\"unordered\"><item>Registration NNHSC Desktop </item><item>LinkLogic </item></list></td><td>Komed Holman Health Center</td><td>UNK</td></tr><tr ID=\"d58931e189-1.2.840.113619.21.1.139060385287897942.10.1591243504308.98098\"><td>2020/06/01 - 2020/06/01</td><td>Registration</td><td><list listType=\"unordered\"><item>Registration NNHSC Desktop </item><item>LinkLogic </item></list></td><td>Komed Holman Health Center</td><td>UNK</td></tr><tr ID=\"d58931e277-1.2.840.113619.21.1.139060385287897942.10.1591243504308.98098\"><td>2020/06/03 - 2020/06/03</td><td>Phone Note</td><td><list listType=\"unordered\"><item>Abby Lankhorst </item></list></td><td>Winfield Moody Health Center</td><td>UNK</td></tr><tr ID=\"d58931e359-1.2.840.113619.21.1.139060385287897942.10.1591243504308.98098\"><td>2020/06/01 - 2020/06/01</td><td>Lab Report</td><td><list listType=\"unordered\"><item>Abby Lankhorst </item><item>LinkLogic </item></list></td><td>Near North Health Service Corporation</td><td>UNK</td></tr><tr ID=\"d58931e447-1.2.840.113619.21.1.139060385287897942.10.1591243504308.98098\"><td>2020/06/01 - 2020/06/01</td><td>Lab Report</td><td><list listType=\"unordered\"><item>Abby Lankhorst </item><item>LinkLogic </item></list></td><td>Near North Health Service Corporation</td><td>UNK</td></tr><tr ID=\"d58931e536-1.2.840.113619.21.1.139060385287897942.10.1591243504308.98098\"><td>2020/06/01 - 2020/06/01</td><td>Office Visit</td><td><list listType=\"unordered\"><item>Abby Lankhorst </item><item>Katrina Lee </item><item>Salama Witherspoon </item></list></td><td>Komed Holman Health Center</td><td><list listType=\"unordered\"><item>VISUAL ACUITY, DECREASED</item><item>BMI =&gt; 95%ile for age</item><item>Well adolescent 12yr-18yr</item><item>CRACKED TOOTH</item><item>Stress</item><item>FAMILY PLANNING</item><item>Health screening</item><item>Abdominal pain</item><item>Yeast infection</item><item>IUD surveillance</item></list></td></tr></tbody></table>"
            },
            "code": {
              "coding": [
                {
                  "code": "46240-8",
                  "system": "http://loinc.org",
                  "display": "ENCOUNTERS"
                }
              ]
            },
            "mode": "snapshot"
          },
          {
            "id": "4823477b-1225-8a4f-6f4c-afc184c5e4f1",
            "title": "MEDICATIONS ADMINISTERED",
            "text": {
              "status": "generated",
              "div": "No Known MEDICATIONS ADMINISTERED"
            },
            "code": {
              "coding": [
                {
                  "code": "29549-3",
                  "system": "http://loinc.org",
                  "display": "MEDICATIONS ADMINISTERED"
                }
              ]
            },
            "mode": "snapshot",
            "entry": [
              {
                "reference": "MedicationAdministration/ea7fbc3b-5f6b-f267-0da4-bfb9185bff65"
              }
            ]
          },
          {
            "id": "a39aba9a-865e-40e2-adf9-1d2df8f0a72c",
            "title": "HISTORY OF MEDICATION USE",
            "text": {
              "status": "generated",
              "div": "<table border=\"1\" width=\"100%\" xmlns=\"urn:hl7-org:v3\"><thead><tr><th align=\"left\">Medication</th><th align=\"left\">Status</th><th align=\"left\">Instructions</th><th align=\"left\">Dates</th><th align=\"left\">Provider</th><th align=\"left\">Indications</th><th align=\"left\">Comments</th></tr></thead><tbody><tr ID=\"d59016e18-1.2.840.113619.21.1.139060385287897942.10.1591243504339.561780\"><td ID=\"d59016e77\">CEFTRIAXONE SODIUM 250 MG INJECTION SOLUTION RECONSTITUTED</td><td>active</td><td ID=\"d59016e80\">Please bring to office for injection</td><td>2020/06/03</td><td>Abby Lankhorst </td><td /><td /></tr><tr ID=\"d59016e86-1.2.840.113619.21.1.139060385287897942.10.1591243504339.561780\"><td ID=\"d59016e150\">AZITHROMYCIN 500 MG ORAL TABLET</td><td>active</td><td ID=\"d59016e153\">2 pills by mouth at once</td><td>2020/06/03 - 2020/06/04</td><td>Abby Lankhorst </td><td /><td /></tr><tr ID=\"d59016e169-1.2.840.113619.21.1.139060385287897942.10.1591243504339.561780\"><td ID=\"d59016e228\">FLUCONAZOLE 150 MG ORAL TABLET</td><td>active</td><td ID=\"d59016e231\">Take one tab by mouth today and one tab by mouth in 4 days</td><td>2020/06/01</td><td>Abby Lankhorst </td><td /><td /></tr><tr ID=\"d59016e247-1.2.840.113619.21.1.139060385287897942.10.1591243504339.561780\"><td ID=\"d59016e306\">FLUCONAZOLE 150 MG ORAL TABLET</td><td>active</td><td ID=\"d59016e309\">Take one tab by mouth now and one tab by mouth in 4 days</td><td>2020/06/01</td><td>Abby Lankhorst </td><td /><td /></tr><tr ID=\"d59016e325-1.2.840.113619.21.1.139060385287897942.10.1591243504339.561780\"><td ID=\"d59016e384\">PARAGARD INTRAUTERINE COPPER INTRAUTERINE INTRAUTERINE DEVICE</td><td>active</td><td ID=\"d59016e387\">To be placed in office.</td><td>2019/06/28</td><td>Ashley Chiarappa </td><td /><td /></tr><tr ID=\"d59016e403-1.2.840.113619.21.1.139060385287897942.10.1591243504339.561780\"><td ID=\"d59016e462\">IBUPROFEN 800 MG ORAL TABLET</td><td>active</td><td ID=\"d59016e465\">1 every 6-8 hours as necessary</td><td>2018/12/26</td><td>Adewale Lawal </td><td /><td /></tr></tbody></table>"
            },
            "code": {
              "coding": [
                {
                  "code": "10160-0",
                  "system": "http://loinc.org",
                  "display": "HISTORY OF MEDICATION USE"
                }
              ]
            },
            "mode": "snapshot"
          },
          {
            "id": "8dd75a51-ab3b-f1b9-70a1-060a70286a81",
            "title": "Problems",
            "text": {
              "status": "generated",
              "div": "No Known Problems"
            },
            "code": {
              "coding": [
                {
                  "code": "11450-4",
                  "system": "http://loinc.org",
                  "display": "Problem list - Reported"
                }
              ]
            },
            "mode": "snapshot",
            "entry": [
              {
                "display": "Problem - Problem",
                "reference": "Condition/cdf1e6a5-751b-3d68-9f97-fe47ac03d989"
              }
            ]
          },
          {
            "id": "1acde897-0d70-e042-8901-4a94c09052a4",
            "title": "RESULTS",
            "text": {
              "status": "generated",
              "div": "<table border=\"1\" width=\"100%\" xmlns=\"urn:hl7-org:v3\"><thead><tr><th align=\"left\">Date</th><th align=\"left\">Observation</th><th align=\"left\">Value</th><th align=\"left\">Provider</th><th align=\"left\">Reference Range</th><th align=\"left\">Interpretation</th><th align=\"left\">Location</th></tr></thead><tbody><tr ID=\"d58945e13-1.2.840.113619.21.1.139060385287897942.10.1591243504324.522646\"><td align=\"left\">2020/06/01</td><td>rapid plasma reagin antibody, serum</td><td>Non Reactive</td><td>LinkLogic </td><td>Non Reactive</td><td /><td /></tr><tr ID=\"d58945e112-1.2.840.113619.21.1.139060385287897942.10.1591243504324.522646\"><td align=\"center\">\"</td><td>Neisseria gonorrhoeae DNA probe</td><td>Positive</td><td>LinkLogic </td><td>Negative</td><td>Abnormal</td><td /></tr><tr ID=\"d58945e217-1.2.840.113619.21.1.139060385287897942.10.1591243504324.522646\"><td align=\"center\">\"</td><td>chlamydia DNA probe</td><td>Positive</td><td>LinkLogic </td><td>Negative</td><td>Abnormal</td><td /></tr></tbody></table>"
            },
            "code": {
              "coding": [
                {
                  "code": "30954-2",
                  "system": "http://loinc.org",
                  "display": "RESULTS"
                }
              ]
            },
            "mode": "snapshot",
            "entry": [
              {
                "reference": "Observation/5a06332a-6295-a635-19f8-5ed3c672b907",
                "display": "rapid plasma reagin antibody, serum"
              },
              {
                "reference": "Observation/f59e664b-2db8-ca3a-4e57-2dcbba97dcd3",
                "display": "Neisseria gonorrhoeae DNA probe"
              },
              {
                "reference": "Observation/87045903-06b6-c8c0-b4f0-5a40fca078d0",
                "display": "chlamydia DNA probe"
              }
            ]
          }
        ],
        "subject": {
          "reference": "Patient/b3f6804e-58aa-45bd-e32e-550f834a47c6"
        },
        "encounter": {
          "reference": "Encounter/bb44bb8e-af4d-7cf5-b8a0-bfed3557d83a"
        },
        "custodian": {
          "reference": "Organization/2bae76ef-8be0-941b-6672-72b84298d223"
        },
        "author": [
          {
            "reference": "PractitionerRole/876b5cd3-71aa-6ae6-94a5-0413e5733a50"
          },
          {
            "reference": "Device/48c756a8-18ae-5310-e8d7-2de6957e99b8"
          }
        ]
      },
      "request": {
        "method": "PUT",
        "url": "Composition/1906844699671550"
      }
    },
    {
      "fullUrl": "urn:uuid:bb44bb8e-af4d-7cf5-b8a0-bfed3557d83a",
      "resource": {
        "resourceType": "Encounter",
        "id": "bb44bb8e-af4d-7cf5-b8a0-bfed3557d83a",
        "status": "unknown",
        "class": {
          "code": "PHC2237",
          "system": "2.16.840.1.114222.4.5.274",
          "display": "External Encounter"
        },
        "identifier": [
          {
            "extension": {
              "url": "http://hl7.org/fhir/ValueSet/data-absent-reason",
              "valueCode": "not-applicable"
            }
          }
        ],
        "subject": {
          "reference": "Patient/b3f6804e-58aa-45bd-e32e-550f834a47c6"
        },
        "location": [
          {
            "id": "2.16.840.1.113883.4.6",
            "location": {
              "reference": "Location/bdf4bd41-5f95-3434-7bad-c22f469af6db",
              "display": "None"
            },
            "extension": [
              {
                "url": "http://build.fhir.org/ig/HL7/case-reporting/StructureDefinition-us-ph-location-definitions.html#Location.type",
                "valueCodeableConcept": {
                  "coding": [
                    {
                      "system": "http://hl7.org/fhir/sid/us-npi"
                    }
                  ]
                }
              }
            ]
          }
        ],
        "serviceProvider": {
          "reference": "Organization/42e178bb-0fd1-7329-a02e-c06b5c9782b8"
        },
        "participant": [
          {
            "type": [
              {
                "coding": [
                  {
                    "system": "http://terminology.hl7.org/CodeSystem/v3-ParticipationType",
                    "code": "ATND"
                  }
                ]
              }
            ],
            "individual": {
              "reference": "PractitionerRole/e8d30303-e0a1-2dbb-bddb-d208c95aad77"
            }
          }
        ]
      },
      "request": {
        "method": "PUT",
        "url": "Encounter/bb44bb8e-af4d-7cf5-b8a0-bfed3557d83a"
      }
    },
    {
      "fullUrl": "urn:uuid:bdf4bd41-5f95-3434-7bad-c22f469af6db",
      "resource": {
        "resourceType": "Location",
        "id": "bdf4bd41-5f95-3434-7bad-c22f469af6db",
        "identifier": [
          {
            "system": "http://hl7.org/fhir/sid/us-npi",
            "_value": {
              "extension": {
                "url": "http://hl7.org/fhir/ValueSet/data-absent-reason",
                "valueCode": "not-applicable"
              }
            }
          }
        ],
        "type": [
          {
            "coding": [
              {
                "system": "http://hl7.org/fhir/sid/us-npi"
              }
            ]
          }
        ]
      },
      "request": {
        "method": "PUT",
        "url": "Location/bdf4bd41-5f95-3434-7bad-c22f469af6db"
      }
    },
    {
      "fullUrl": "urn:uuid:42e178bb-0fd1-7329-a02e-c06b5c9782b8",
      "resource": {
        "resourceType": "Organization",
        "id": "42e178bb-0fd1-7329-a02e-c06b5c9782b8"
      },
      "request": {
        "method": "PUT",
        "url": "Organization/42e178bb-0fd1-7329-a02e-c06b5c9782b8"
      }
    },
    {
      "fullUrl": "urn:uuid:e8d30303-e0a1-2dbb-bddb-d208c95aad77",
      "resource": {
        "resourceType": "Practitioner",
        "id": "e8d30303-e0a1-2dbb-bddb-d208c95aad77",
        "meta": {
          "profile": [
            "http://hl7.org/fhir/us/core/StructureDefinition/us-core-practitioner"
          ]
        },
        "extension": [
          {
            "url": "http://hl7.org/fhir/StructureDefinition/_datatype",
            "valueString": "Responsible Party"
          }
        ],
        "identifier": [
          {
            "system": "http://hl7.org/fhir/sid/us-npi",
            "_value": {
              "extension": {
                "url": "http://hl7.org/fhir/ValueSet/data-absent-reason",
                "valueCode": "not-applicable"
              }
            }
          }
        ]
      },
      "request": {
        "method": "PUT",
        "url": "Practitioner/e8d30303-e0a1-2dbb-bddb-d208c95aad77"
      }
    },
    {
      "resource": {
        "resourceType": "PractitionerRole",
        "id": "e8d30303-e0a1-2dbb-bddb-d208c95aad77",
        "practitioner": {
          "reference": "Practitioner/e8d30303-e0a1-2dbb-bddb-d208c95aad77"
        },
        "organization": {
          "reference": "Organization/43eaaf8e-f805-d37c-8e4e-77965eef87aa"
        }
      }
    },
    {
      "fullUrl": "urn:uuid:43eaaf8e-f805-d37c-8e4e-77965eef87aa",
      "resource": {
        "resourceType": "Organization",
        "id": "43eaaf8e-f805-d37c-8e4e-77965eef87aa"
      },
      "request": {
        "method": "PUT",
        "url": "Organization/43eaaf8e-f805-d37c-8e4e-77965eef87aa"
      }
    },
    {
      "fullUrl": "urn:uuid:2bae76ef-8be0-941b-6672-72b84298d223",
      "resource": {
        "resourceType": "Organization",
        "id": "2bae76ef-8be0-941b-6672-72b84298d223",
        "identifier": [
          {
            "system": "urn:oid:1.2.840.113619.21.1.139060385287897942.9",
            "value": "Organization/LO-1454412490000610",
            "assigner": {
              "display": " API Resource Identifier"
            }
          },
          {
            "system": "UNK",
            "value": "LO-1454412490000610",
            "assigner": {
              "display": "Organization Identifier"
            }
          },
          {
            "system": "urn:oid:2.16.840.1.113883.4.2",
            "value": "363197647",
            "assigner": {
              "display": "Tax ID number"
            }
          }
        ],
        "name": "Komed Holman Health Center",
        "address": [
          {
            "line": [
              "4259 S. Berkeley"
            ],
            "city": "Chicago",
            "state": "IL",
            "country": "USA",
            "postalCode": "60653"
          }
        ],
        "telecom": [
          {
            "system": "phone",
            "value": "7732687600",
            "use": "work"
          }
        ]
      },
      "request": {
        "method": "PUT",
        "url": "Organization/2bae76ef-8be0-941b-6672-72b84298d223"
      }
    },
    {
      "fullUrl": "urn:uuid:406c3e36-d27a-041b-61a8-e29df69f50e1",
      "resource": {
        "resourceType": "Practitioner",
        "id": "406c3e36-d27a-041b-61a8-e29df69f50e1",
        "meta": {
          "profile": [
            "http://hl7.org/fhir/us/core/StructureDefinition/us-core-practitioner"
          ]
        },
        "identifier": [
          {
            "system": "urn:oid:1.2.840.113619.21.1.139060385287897942.2.2",
            "value": "1467041069000630",
            "assigner": {
              "display": " Providers by PVID"
            }
          },
          {
            "system": "urn:oid:1.2.840.113619.21.1.139060385287897942.2.1",
            "value": "365",
            "assigner": {
              "display": " Providers by DoctorFacility"
            }
          }
        ],
        "name": [
          {
            "family": "Nurse Desk",
            "given": [
              "KH WH"
            ]
          }
        ],
        "address": [
          {
            "line": [
              "Winfield Moody",
              "1276 N Clybourn"
            ],
            "city": "Chicago",
            "state": "IL",
            "postalCode": "60653"
          }
        ],
        "telecom": [
          {
            "system": "phone",
            "value": "3123371073",
            "use": "work"
          },
          {
            "system": "phone",
            "value": "3123377616",
            "use": "mobile"
          }
        ]
      },
      "request": {
        "method": "PUT",
        "url": "Practitioner/406c3e36-d27a-041b-61a8-e29df69f50e1"
      }
    },
    {
      "fullUrl": "urn:uuid:01fe444a-5df3-6915-447b-5b16fe2c6872",
      "resource": {
        "resourceType": "Organization",
        "id": "01fe444a-5df3-6915-447b-5b16fe2c6872",
        "identifier": [
          {
            "system": "urn:oid:1.2.840.113619.21.1.139060385287897942.9",
            "value": "Organization/DF-76",
            "assigner": {
              "display": " API Resource Identifier"
            }
          },
          {
            "system": "UNK",
            "value": "DF-76",
            "assigner": {
              "display": "Organization Identifier"
            }
          },
          {
            "system": "http://hl7.org/fhir/sid/us-npi",
            "value": "1821079088",
            "assigner": {
              "display": "National Provider Identifier"
            }
          },
          {
            "system": "urn:oid:2.16.840.1.113883.4.2",
            "value": "363197647",
            "assigner": {
              "display": "Tax ID number"
            }
          }
        ],
        "name": "Winfield Moody Health Center",
        "address": [
          {
            "line": [
              "1276 N Clybourn"
            ],
            "city": "Chicago",
            "state": "IL ",
            "postalCode": "60610     "
          }
        ],
        "telecom": [
          {
            "system": "phone",
            "value": "3123371073     ",
            "use": "work"
          }
        ]
      },
      "request": {
        "method": "PUT",
        "url": "Organization/01fe444a-5df3-6915-447b-5b16fe2c6872"
      }
    },
    {
      "resource": {
        "resourceType": "PractitionerRole",
        "id": "876b5cd3-71aa-6ae6-94a5-0413e5733a50",
        "organization": {
          "reference": "Organization/01fe444a-5df3-6915-447b-5b16fe2c6872"
        },
        "practitioner": {
          "reference": "Practitioner/406c3e36-d27a-041b-61a8-e29df69f50e1"
        }
      }
    },
    {
      "fullUrl": "urn:uuid:48c756a8-18ae-5310-e8d7-2de6957e99b8",
      "resource": {
        "resourceType": "Device",
        "id": "48c756a8-18ae-5310-e8d7-2de6957e99b8",
        "identifier": [
          {
            "system": "urn:ietf:rfc:3986",
            "value": "urn:oid:1.2.840.113619.21.1.139060385287897942.11"
          }
        ],
        "manufacturer": "12.3/9.12",
        "version": [
          {
            "value": "GE Healthcare API Server"
          }
        ],
        "property": [
          {
            "type": {
              "coding": [
                {
                  "system": "http://hl7.org/fhir/device-category",
                  "code": "software",
                  "display": "software"
                }
              ]
            }
          }
        ],
        "owner": {
          "reference": "Organization/2bae76ef-8be0-941b-6672-72b84298d223"
        }
      },
      "request": {
        "method": "PUT",
        "url": "Device/48c756a8-18ae-5310-e8d7-2de6957e99b8"
      }
    },
    {
      "fullUrl": "urn:uuid:b3f6804e-58aa-45bd-e32e-550f834a47c6",
      "resource": {
        "resourceType": "Patient",
        "id": "b3f6804e-58aa-45bd-e32e-550f834a47c6",
        "meta": {
          "profile": [
            "http://hl7.org/fhir/us/core/StructureDefinition/us-core-patient"
          ]
        },
        "identifier": [
          {
            "system": "urn:oid:1.2.840.113619.21.1.139060385287897942.2.1.1.1",
            "value": "1457800377600610"
          },
          {
            "system": "urn:oid:1.2.840.113619.21.1.139060385287897942.2.1.1.2",
            "value": "50391",
            "assigner": {
              "display": "GE EMR-CPS PatientId"
            }
          },
          {
            "system": "urn:oid:1.2.840.113619.21.1.139060385287897942.2.1.1",
            "value": "K83852",
            "assigner": {
              "display": "GE EMR-CPS PatientMRN"
            }
          }
        ],
        "name": [
          {
            "use": "official",
            "family": "Patient7",
            "given": [
              "Sample"
            ]
          }
        ],
        "birthDate": "1991-07-01",
        "deceasedBoolean": false,
        "gender": "female",
        "extension": [
          {
            "url": "http://hl7.org/fhir/us/core/StructureDefinition/us-core-race",
            "extension": [
              {
                "url": "ombCategory",
                "valueCoding": {
                  "code": "2054-5",
                  "system": "urn:oid:2.16.840.1.113883.6.238",
                  "display": "Black or African American"
                }
              },
              {
                "url": "text",
                "valueString": "Black or African American"
              }
            ]
          },
          {
            "url": "http://hl7.org/fhir/us/core/StructureDefinition/us-core-ethnicity",
            "extension": [
              {
                "url": "ombCategory",
                "valueCoding": {
                  "code": "2186-5",
                  "system": "urn:oid:2.16.840.1.113883.6.238",
                  "display": "Not Hispanic or Latino"
                }
              },
              {
                "url": "text",
                "valueString": "Not Hispanic or Latino"
              }
            ]
          }
        ],
        "address": [
          {
            "line": [
              "7 Sample Street",
              "apt 2"
            ],
            "city": "Chicago",
            "state": "IL",
            "postalCode": "60653"
          }
        ],
        "telecom": [
          {
            "system": "phone",
            "value": "3129998888",
            "use": "mobile"
          }
        ],
        "communication": [
          {
            "language": {
              "coding": [
                {
                  "system": "urn:ietf:bcp:47",
                  "code": "en",
                  "display": "English"
                }
              ]
            },
            "preferred": true
          }
        ]
      },
      "request": {
        "method": "PUT",
        "url": "Patient/b3f6804e-58aa-45bd-e32e-550f834a47c6"
      }
    },
    {
      "fullUrl": "urn:uuid:ea7fbc3b-5f6b-f267-0da4-bfb9185bff65",
      "resource": {
        "resourceType": "MedicationAdministration",
        "id": "ea7fbc3b-5f6b-f267-0da4-bfb9185bff65",
        "identifier": [
          {
            "system": "urn:ietf:rfc:3986",
            "value": "urn:oid:1.2.840.113619.21.1.139060385287897942.10.1591243504308.738531"
          }
        ],
        "status": "in-progress",
        "effectivePeriod": {
          "start": "1970-01-01T00:00:00",
          "end": "2020-06-03T23:05:04.308-05:00"
        },
        "subject": {
          "reference": "Patient/b3f6804e-58aa-45bd-e32e-550f834a47c6"
        },
        "medicationReference": {
          "reference": "Medication/cfbe2a1a-c8da-ec09-57cb-0f4fdfc02412"
        }
      },
      "request": {
        "method": "PUT",
        "url": "MedicationAdministration/ea7fbc3b-5f6b-f267-0da4-bfb9185bff65"
      }
    },
    {
      "fullUrl": "urn:uuid:cfbe2a1a-c8da-ec09-57cb-0f4fdfc02412",
      "resource": {
        "resourceType": "Medication",
        "id": "cfbe2a1a-c8da-ec09-57cb-0f4fdfc02412",
        "code": {
          "coding": [
            {
              "system": "http://www.nlm.nih.gov/research/umls/rxnorm"
            },
            {
              "code": "410942007",
              "system": "http://snomed.info/sct",
              "display": "drug or medication"
            }
          ]
        }
      },
      "request": {
        "method": "PUT",
        "url": "Medication/cfbe2a1a-c8da-ec09-57cb-0f4fdfc02412"
      }
    },
    {
      "fullUrl": "urn:uuid:d860b782-e36b-08b5-c11c-4402b8448de2",
      "resource": {
        "resourceType": "MedicationStatement",
        "id": "d860b782-e36b-08b5-c11c-4402b8448de2",
        "identifier": [
          {
            "system": "urn:oid:1.2.840.113619.21.1.139060385287897942.9",
            "value": "MedicationStatement/1906794814104370",
            "assigner": {
              "display": " API Resource Identifier"
            }
          }
        ],
        "status": "active",
        "effectivePeriod": {
          "start": "2020-06-03T00:00:00-05:00"
        },
        "subject": {
          "reference": "Patient/b3f6804e-58aa-45bd-e32e-550f834a47c6"
        },
        "medicationReference": {
          "reference": "Medication/080f6a96-def3-492a-8a1e-fdc39118cb3a"
        }
      },
      "request": {
        "method": "PUT",
        "url": "MedicationStatement/d860b782-e36b-08b5-c11c-4402b8448de2"
      }
    },
    {
      "fullUrl": "urn:uuid:080f6a96-def3-492a-8a1e-fdc39118cb3a",
      "resource": {
        "resourceType": "Medication",
        "id": "080f6a96-def3-492a-8a1e-fdc39118cb3a",
        "code": {
          "coding": [
            {
              "code": "309092",
              "system": "http://www.nlm.nih.gov/research/umls/rxnorm",
              "display": "CEFTRIAXONE SODIUM"
            },
            {
              "code": "25900",
              "system": "2.16.840.1.113883.6.253"
            },
            {
              "code": "02300090102105",
              "system": "2.16.840.1.113883.6.68"
            },
            {
              "code": "2880",
              "system": "1.2.840.113619.21.100.12.998"
            },
            {
              "code": "8229",
              "system": "1.2.840.113619.21.100.12.999"
            },
            {
              "code": "00143985925",
              "system": "2.16.840.1.113883.6.69"
            }
          ],
          "text": "(CEFTRIAXONE SODIUM) 250 MG SOLR"
        }
      },
      "request": {
        "method": "PUT",
        "url": "Medication/080f6a96-def3-492a-8a1e-fdc39118cb3a"
      }
    },
    {
      "fullUrl": "urn:uuid:fd6a2871-2caf-071b-6cce-ac36bfbf1b14",
      "resource": {
        "resourceType": "MedicationRequest",
        "id": "fd6a2871-2caf-071b-6cce-ac36bfbf1b14",
        "identifier": [
          {
            "system": "urn:oid:1.2.840.113619.21.1.139060385287897942.9",
            "value": "MedicationOrder/1906794814104400",
            "assigner": {
              "display": " API Resource Identifier"
            }
          },
          {
            "system": "UNK",
            "value": "EA5CB00715EE442793C8DD108DDA696F",
            "assigner": {
              "display": "Unknown"
            }
          }
        ],
        "status": "completed",
        "intent": "order",
        "authoredOn": "2020-06-03T09:14:42.410-05:00",
        "dispenseRequest": {
          "numberOfRepeatsAllowed": 0
        },
        "subject": {
          "reference": "Patient/b3f6804e-58aa-45bd-e32e-550f834a47c6"
        },
        "medicationReference": {
          "reference": "Medication/080f6a96-def3-492a-8a1e-fdc39118cb3a"
        },
        "requester": {
          "reference": "Practitioner/d9b69512-19f2-6c00-7eb7-d579bbbbe5e8"
        }
      },
      "request": {
        "method": "PUT",
        "url": "MedicationRequest/fd6a2871-2caf-071b-6cce-ac36bfbf1b14"
      }
    },
    {
      "fullUrl": "urn:uuid:d9b69512-19f2-6c00-7eb7-d579bbbbe5e8",
      "resource": {
        "resourceType": "Practitioner",
        "id": "d9b69512-19f2-6c00-7eb7-d579bbbbe5e8",
        "meta": {
          "profile": [
            "http://hl7.org/fhir/us/core/StructureDefinition/us-core-practitioner"
          ]
        },
        "identifier": [
          {
            "system": "urn:oid:1.2.840.113619.21.1.139060385287897942.2.2",
            "value": "1881830337473020",
            "assigner": {
              "display": " Providers by PVID"
            }
          },
          {
            "system": "urn:oid:1.2.840.113619.21.1.139060385287897942.2.1",
            "value": "1811",
            "assigner": {
              "display": " Providers by DoctorFacility"
            }
          },
          {
            "system": "http://hl7.org/fhir/sid/us-npi",
            "value": "1811159825",
            "assigner": {
              "display": "US National Provider Identifiers"
            }
          },
          {
            "system": "urn:oid:2.16.840.1.113883.4.2",
            "value": "363197647",
            "assigner": {
              "display": "Federal Tax Identifier"
            }
          }
        ],
        "name": [
          {
            "family": "Lankhorst",
            "given": [
              "Abby"
            ]
          }
        ],
        "address": [
          {
            "line": [
              "Winfield Moody",
              "1276 N. Clybourn"
            ],
            "city": "Chicago",
            "state": "IL",
            "postalCode": "60610"
          }
        ],
        "telecom": [
          {
            "system": "phone",
            "value": "3123371073",
            "use": "work"
          },
          {
            "system": "phone",
            "value": "3123377616",
            "use": "mobile"
          }
        ]
      },
      "request": {
        "method": "PUT",
        "url": "Practitioner/d9b69512-19f2-6c00-7eb7-d579bbbbe5e8"
      }
    },
    {
      "fullUrl": "urn:uuid:d0fa0614-3773-4500-c873-527efb265cda",
      "resource": {
        "resourceType": "MedicationStatement",
        "id": "d0fa0614-3773-4500-c873-527efb265cda",
        "identifier": [
          {
            "system": "urn:oid:1.2.840.113619.21.1.139060385287897942.9",
            "value": "MedicationStatement/1906794701097590",
            "assigner": {
              "display": " API Resource Identifier"
            }
          }
        ],
        "status": "active",
        "effectivePeriod": {
          "start": "2020-06-03T00:00:00-05:00",
          "end": "2020-06-04T00:00:00-05:00"
        },
        "subject": {
          "reference": "Patient/b3f6804e-58aa-45bd-e32e-550f834a47c6"
        },
        "medicationReference": {
          "reference": "Medication/65f63e94-64a1-cf89-3c94-11189604d417"
        }
      },
      "request": {
        "method": "PUT",
        "url": "MedicationStatement/d0fa0614-3773-4500-c873-527efb265cda"
      }
    },
    {
      "fullUrl": "urn:uuid:65f63e94-64a1-cf89-3c94-11189604d417",
      "resource": {
        "resourceType": "Medication",
        "id": "65f63e94-64a1-cf89-3c94-11189604d417",
        "code": {
          "coding": [
            {
              "code": "248656",
              "system": "http://www.nlm.nih.gov/research/umls/rxnorm",
              "display": "AZITHROMYCIN"
            },
            {
              "code": "749780",
              "system": "http://www.nlm.nih.gov/research/umls/rxnorm",
              "display": "{3 (azithromycin 500 MG Oral Tablet) } Pack"
            },
            {
              "code": "44793",
              "system": "2.16.840.1.113883.6.253"
            },
            {
              "code": "03400010000334",
              "system": "2.16.840.1.113883.6.68"
            },
            {
              "code": "5799",
              "system": "1.2.840.113619.21.100.12.998"
            },
            {
              "code": "1944",
              "system": "1.2.840.113619.21.100.12.999"
            },
            {
              "code": "50111078810",
              "system": "2.16.840.1.113883.6.69"
            }
          ],
          "text": "(AZITHROMYCIN) 500 MG TABS"
        }
      },
      "request": {
        "method": "PUT",
        "url": "Medication/65f63e94-64a1-cf89-3c94-11189604d417"
      }
    },
    {
      "fullUrl": "urn:uuid:20ac1448-eeee-6318-9ec7-8045b4b03e0c",
      "resource": {
        "resourceType": "MedicationRequest",
        "id": "20ac1448-eeee-6318-9ec7-8045b4b03e0c",
        "identifier": [
          {
            "system": "urn:oid:1.2.840.113619.21.1.139060385287897942.9",
            "value": "MedicationOrder/1906794814104360",
            "assigner": {
              "display": " API Resource Identifier"
            }
          },
          {
            "system": "UNK",
            "value": "92B7EB8F8B244852B67A7005F2A1AB71",
            "assigner": {
              "display": "Unknown"
            }
          }
        ],
        "status": "completed",
        "intent": "order",
        "authoredOn": "2020-06-03T09:14:42.143-05:00",
        "dispenseRequest": {
          "numberOfRepeatsAllowed": 0
        },
        "subject": {
          "reference": "Patient/b3f6804e-58aa-45bd-e32e-550f834a47c6"
        },
        "medicationReference": {
          "reference": "Medication/65f63e94-64a1-cf89-3c94-11189604d417"
        },
        "requester": {
          "reference": "Practitioner/d9b69512-19f2-6c00-7eb7-d579bbbbe5e8"
        }
      },
      "request": {
        "method": "PUT",
        "url": "MedicationRequest/20ac1448-eeee-6318-9ec7-8045b4b03e0c"
      }
    },
    {
      "fullUrl": "urn:uuid:4d760eb7-04d8-615d-5ccc-5609f1a5e161",
      "resource": {
        "resourceType": "MedicationStatement",
        "id": "4d760eb7-04d8-615d-5ccc-5609f1a5e161",
        "identifier": [
          {
            "system": "urn:oid:1.2.840.113619.21.1.139060385287897942.9",
            "value": "MedicationStatement/1906648550009870",
            "assigner": {
              "display": " API Resource Identifier"
            }
          }
        ],
        "status": "active",
        "effectivePeriod": {
          "start": "2020-06-01T00:00:00-05:00"
        },
        "subject": {
          "reference": "Patient/b3f6804e-58aa-45bd-e32e-550f834a47c6"
        },
        "medicationReference": {
          "reference": "Medication/71358990-776d-5e12-51cd-1f209bffcf30"
        }
      },
      "request": {
        "method": "PUT",
        "url": "MedicationStatement/4d760eb7-04d8-615d-5ccc-5609f1a5e161"
      }
    },
    {
      "fullUrl": "urn:uuid:71358990-776d-5e12-51cd-1f209bffcf30",
      "resource": {
        "resourceType": "Medication",
        "id": "71358990-776d-5e12-51cd-1f209bffcf30",
        "code": {
          "coding": [
            {
              "code": "197699",
              "system": "http://www.nlm.nih.gov/research/umls/rxnorm",
              "display": "FLUCONAZOLE"
            },
            {
              "code": "36392",
              "system": "2.16.840.1.113883.6.253"
            },
            {
              "code": "11407015000325",
              "system": "2.16.840.1.113883.6.68"
            },
            {
              "code": "20075",
              "system": "1.2.840.113619.21.100.12.998"
            },
            {
              "code": "4975",
              "system": "1.2.840.113619.21.100.12.999"
            },
            {
              "code": "00172541211",
              "system": "2.16.840.1.113883.6.69"
            }
          ],
          "text": "(FLUCONAZOLE) 150 MG TABS"
        }
      },
      "request": {
        "method": "PUT",
        "url": "Medication/71358990-776d-5e12-51cd-1f209bffcf30"
      }
    },
    {
      "fullUrl": "urn:uuid:5b8ac9bf-d2eb-06f9-a874-f40acdd515df",
      "resource": {
        "resourceType": "MedicationRequest",
        "id": "5b8ac9bf-d2eb-06f9-a874-f40acdd515df",
        "identifier": [
          {
            "system": "urn:oid:1.2.840.113619.21.1.139060385287897942.9",
            "value": "MedicationOrder/1906648550009910",
            "assigner": {
              "display": " API Resource Identifier"
            }
          },
          {
            "system": "UNK",
            "value": "CEE7F32FD26641EDB8A6D368767349E8",
            "assigner": {
              "display": "Unknown"
            }
          }
        ],
        "status": "completed",
        "intent": "order",
        "authoredOn": "2020-06-01T16:36:50.487-05:00",
        "dispenseRequest": {
          "numberOfRepeatsAllowed": 0
        },
        "subject": {
          "reference": "Patient/b3f6804e-58aa-45bd-e32e-550f834a47c6"
        },
        "medicationReference": {
          "reference": "Medication/71358990-776d-5e12-51cd-1f209bffcf30"
        },
        "requester": {
          "reference": "Practitioner/d9b69512-19f2-6c00-7eb7-d579bbbbe5e8"
        }
      },
      "request": {
        "method": "PUT",
        "url": "MedicationRequest/5b8ac9bf-d2eb-06f9-a874-f40acdd515df"
      }
    },
    {
      "fullUrl": "urn:uuid:7efae858-6f75-b127-178c-b77673324a8f",
      "resource": {
        "resourceType": "MedicationStatement",
        "id": "7efae858-6f75-b127-178c-b77673324a8f",
        "identifier": [
          {
            "system": "urn:oid:1.2.840.113619.21.1.139060385287897942.9",
            "value": "MedicationStatement/1906648045992040",
            "assigner": {
              "display": " API Resource Identifier"
            }
          }
        ],
        "status": "active",
        "effectivePeriod": {
          "start": "2020-06-01T00:00:00-05:00"
        },
        "subject": {
          "reference": "Patient/b3f6804e-58aa-45bd-e32e-550f834a47c6"
        },
        "medicationReference": {
          "reference": "Medication/71358990-776d-5e12-51cd-1f209bffcf30"
        }
      },
      "request": {
        "method": "PUT",
        "url": "MedicationStatement/7efae858-6f75-b127-178c-b77673324a8f"
      }
    },
    {
      "fullUrl": "urn:uuid:ef77f28f-81b9-0ced-c4f2-a88d5bffa80c",
      "resource": {
        "resourceType": "MedicationRequest",
        "id": "ef77f28f-81b9-0ced-c4f2-a88d5bffa80c",
        "identifier": [
          {
            "system": "urn:oid:1.2.840.113619.21.1.139060385287897942.9",
            "value": "MedicationOrder/1906648045992100",
            "assigner": {
              "display": " API Resource Identifier"
            }
          },
          {
            "system": "UNK",
            "value": "1AA45574DAF444138E2A5CCA6E16CFB7",
            "assigner": {
              "display": "Unknown"
            }
          }
        ],
        "status": "completed",
        "intent": "order",
        "authoredOn": "2020-06-01T16:36:50.240-05:00",
        "dispenseRequest": {
          "numberOfRepeatsAllowed": 0
        },
        "subject": {
          "reference": "Patient/b3f6804e-58aa-45bd-e32e-550f834a47c6"
        },
        "medicationReference": {
          "reference": "Medication/71358990-776d-5e12-51cd-1f209bffcf30"
        },
        "requester": {
          "reference": "Practitioner/d9b69512-19f2-6c00-7eb7-d579bbbbe5e8"
        }
      },
      "request": {
        "method": "PUT",
        "url": "MedicationRequest/ef77f28f-81b9-0ced-c4f2-a88d5bffa80c"
      }
    },
    {
      "fullUrl": "urn:uuid:2d6e43f4-f8f2-96fd-f516-fdae0537fcc0",
      "resource": {
        "resourceType": "MedicationStatement",
        "id": "2d6e43f4-f8f2-96fd-f516-fdae0537fcc0",
        "identifier": [
          {
            "system": "urn:oid:1.2.840.113619.21.1.139060385287897942.9",
            "value": "MedicationStatement/1877334641792290",
            "assigner": {
              "display": " API Resource Identifier"
            }
          }
        ],
        "status": "active",
        "effectivePeriod": {
          "start": "2019-06-28T00:00:00-05:00"
        },
        "subject": {
          "reference": "Patient/b3f6804e-58aa-45bd-e32e-550f834a47c6"
        },
        "medicationReference": {
          "reference": "Medication/08901c84-0a30-6838-4dae-14765d1de82f"
        }
      },
      "request": {
        "method": "PUT",
        "url": "MedicationStatement/2d6e43f4-f8f2-96fd-f516-fdae0537fcc0"
      }
    },
    {
      "fullUrl": "urn:uuid:08901c84-0a30-6838-4dae-14765d1de82f",
      "resource": {
        "resourceType": "Medication",
        "id": "08901c84-0a30-6838-4dae-14765d1de82f",
        "code": {
          "coding": [
            {
              "code": "2267310",
              "system": "http://www.nlm.nih.gov/research/umls/rxnorm",
              "display": "COPPER"
            },
            {
              "code": "16305",
              "system": "2.16.840.1.113883.6.253"
            },
            {
              "code": "25050010005320",
              "system": "2.16.840.1.113883.6.68"
            },
            {
              "code": "344",
              "system": "1.2.840.113619.21.100.12.998"
            },
            {
              "code": "14751",
              "system": "1.2.840.113619.21.100.12.999"
            },
            {
              "code": "51285020401",
              "system": "2.16.840.1.113883.6.69"
            }
          ],
          "text": "PARAGARD INTRAUTERINE COPPER (COPPER) IUD"
        }
      },
      "request": {
        "method": "PUT",
        "url": "Medication/08901c84-0a30-6838-4dae-14765d1de82f"
      }
    },
    {
      "fullUrl": "urn:uuid:5018fcdc-c923-ce19-c64e-fe02eb6c81e3",
      "resource": {
        "resourceType": "MedicationRequest",
        "id": "5018fcdc-c923-ce19-c64e-fe02eb6c81e3",
        "identifier": [
          {
            "system": "urn:oid:1.2.840.113619.21.1.139060385287897942.9",
            "value": "MedicationOrder/1877334795806910",
            "assigner": {
              "display": " API Resource Identifier"
            }
          },
          {
            "system": "UNK",
            "value": "0AE5DA0574B242CC9A191BFB554A2ABC",
            "assigner": {
              "display": "Unknown"
            }
          }
        ],
        "status": "completed",
        "intent": "order",
        "authoredOn": "2019-06-28T09:53:54.410-05:00",
        "dispenseRequest": {
          "numberOfRepeatsAllowed": 0
        },
        "subject": {
          "reference": "Patient/b3f6804e-58aa-45bd-e32e-550f834a47c6"
        },
        "medicationReference": {
          "reference": "Medication/08901c84-0a30-6838-4dae-14765d1de82f"
        },
        "requester": {
          "reference": "Practitioner/dd37482d-0d97-b7a9-e80f-d4af1427304a"
        }
      },
      "request": {
        "method": "PUT",
        "url": "MedicationRequest/5018fcdc-c923-ce19-c64e-fe02eb6c81e3"
      }
    },
    {
      "fullUrl": "urn:uuid:dd37482d-0d97-b7a9-e80f-d4af1427304a",
      "resource": {
        "resourceType": "Practitioner",
        "id": "dd37482d-0d97-b7a9-e80f-d4af1427304a",
        "meta": {
          "profile": [
            "http://hl7.org/fhir/us/core/StructureDefinition/us-core-practitioner"
          ]
        },
        "identifier": [
          {
            "system": "urn:oid:1.2.840.113619.21.1.139060385287897942.2.2",
            "value": "1849252276266540",
            "assigner": {
              "display": " Providers by PVID"
            }
          },
          {
            "system": "urn:oid:1.2.840.113619.21.1.139060385287897942.2.1",
            "value": "1678",
            "assigner": {
              "display": " Providers by DoctorFacility"
            }
          },
          {
            "system": "http://hl7.org/fhir/sid/us-npi",
            "value": "1760983092",
            "assigner": {
              "display": "US National Provider Identifiers"
            }
          },
          {
            "system": "urn:oid:2.16.840.1.113883.4.2",
            "value": "363197647",
            "assigner": {
              "display": "Federal Tax Identifier"
            }
          }
        ],
        "name": [
          {
            "family": "Chiarappa",
            "given": [
              "Ashley"
            ]
          }
        ],
        "address": [
          {
            "line": [
              "Winfield Moody",
              "1276 N. Clybourn"
            ],
            "city": "Chicago",
            "state": "IL",
            "postalCode": "60610"
          }
        ],
        "telecom": [
          {
            "system": "phone",
            "value": "3123371073",
            "use": "work"
          },
          {
            "system": "phone",
            "value": "3123377616",
            "use": "mobile"
          }
        ]
      },
      "request": {
        "method": "PUT",
        "url": "Practitioner/dd37482d-0d97-b7a9-e80f-d4af1427304a"
      }
    },
    {
      "fullUrl": "urn:uuid:93be09a3-e33c-cc32-4d47-d84b82649ecf",
      "resource": {
        "resourceType": "MedicationStatement",
        "id": "93be09a3-e33c-cc32-4d47-d84b82649ecf",
        "identifier": [
          {
            "system": "urn:oid:1.2.840.113619.21.1.139060385287897942.9",
            "value": "MedicationStatement/1861435742088670",
            "assigner": {
              "display": " API Resource Identifier"
            }
          }
        ],
        "status": "active",
        "effectivePeriod": {
          "start": "2018-12-26T00:00:00-06:00"
        },
        "subject": {
          "reference": "Patient/b3f6804e-58aa-45bd-e32e-550f834a47c6"
        },
        "medicationReference": {
          "reference": "Medication/bed36dcc-025e-04cf-01d4-992fbf73ef6f"
        }
      },
      "request": {
        "method": "PUT",
        "url": "MedicationStatement/93be09a3-e33c-cc32-4d47-d84b82649ecf"
      }
    },
    {
      "fullUrl": "urn:uuid:bed36dcc-025e-04cf-01d4-992fbf73ef6f",
      "resource": {
        "resourceType": "Medication",
        "id": "bed36dcc-025e-04cf-01d4-992fbf73ef6f",
        "code": {
          "coding": [
            {
              "code": "197807",
              "system": "http://www.nlm.nih.gov/research/umls/rxnorm",
              "display": "IBUPROFEN"
            },
            {
              "code": "10520",
              "system": "2.16.840.1.113883.6.253"
            },
            {
              "code": "66100020000340",
              "system": "2.16.840.1.113883.6.68"
            },
            {
              "code": "665",
              "system": "1.2.840.113619.21.100.12.998"
            },
            {
              "code": "6529",
              "system": "1.2.840.113619.21.100.12.999"
            },
            {
              "code": "00904585540",
              "system": "2.16.840.1.113883.6.69"
            }
          ],
          "text": "(IBUPROFEN) 800 MG TABS"
        }
      },
      "request": {
        "method": "PUT",
        "url": "Medication/bed36dcc-025e-04cf-01d4-992fbf73ef6f"
      }
    },
    {
      "fullUrl": "urn:uuid:9b6cde79-1af9-b479-33de-edf149ef7363",
      "resource": {
        "resourceType": "MedicationRequest",
        "id": "9b6cde79-1af9-b479-33de-edf149ef7363",
        "identifier": [
          {
            "system": "urn:oid:1.2.840.113619.21.1.139060385287897942.9",
            "value": "MedicationOrder/1861435742088760",
            "assigner": {
              "display": " API Resource Identifier"
            }
          },
          {
            "system": "UNK",
            "value": "FD8529F7C8674BED92FA34FDDB18BE2C",
            "assigner": {
              "display": "Unknown"
            }
          }
        ],
        "status": "completed",
        "intent": "order",
        "authoredOn": "2018-12-26T09:30:49.967-06:00",
        "dispenseRequest": {
          "numberOfRepeatsAllowed": 0
        },
        "subject": {
          "reference": "Patient/b3f6804e-58aa-45bd-e32e-550f834a47c6"
        },
        "medicationReference": {
          "reference": "Medication/bed36dcc-025e-04cf-01d4-992fbf73ef6f"
        },
        "requester": {
          "reference": "Practitioner/3a149be1-7943-66f8-0d42-99a0effd4c45"
        }
      },
      "request": {
        "method": "PUT",
        "url": "MedicationRequest/9b6cde79-1af9-b479-33de-edf149ef7363"
      }
    },
    {
      "fullUrl": "urn:uuid:3a149be1-7943-66f8-0d42-99a0effd4c45",
      "resource": {
        "resourceType": "Practitioner",
        "id": "3a149be1-7943-66f8-0d42-99a0effd4c45",
        "meta": {
          "profile": [
            "http://hl7.org/fhir/us/core/StructureDefinition/us-core-practitioner"
          ]
        },
        "identifier": [
          {
            "system": "urn:oid:1.2.840.113619.21.1.139060385287897942.2.2",
            "value": "1793523672309590",
            "assigner": {
              "display": " Providers by PVID"
            }
          },
          {
            "system": "urn:oid:1.2.840.113619.21.1.139060385287897942.2.1",
            "value": "1434",
            "assigner": {
              "display": " Providers by DoctorFacility"
            }
          },
          {
            "system": "http://hl7.org/fhir/sid/us-npi",
            "value": "1124373899",
            "assigner": {
              "display": "US National Provider Identifiers"
            }
          },
          {
            "system": "urn:oid:2.16.840.1.113883.4.2",
            "value": "363197647",
            "assigner": {
              "display": "Federal Tax Identifier"
            }
          }
        ],
        "name": [
          {
            "family": "Lawal",
            "given": [
              "Adewale"
            ]
          }
        ],
        "address": [
          {
            "line": [
              "North and Kostner Health Center",
              "1520 North Kostner Avenue"
            ],
            "city": "Chicago",
            "state": "IL",
            "postalCode": "60651"
          }
        ],
        "telecom": [
          {
            "system": "phone",
            "value": "3122168020",
            "use": "work"
          },
          {
            "system": "phone",
            "value": "7732524876",
            "use": "mobile"
          }
        ]
      },
      "request": {
        "method": "PUT",
        "url": "Practitioner/3a149be1-7943-66f8-0d42-99a0effd4c45"
      }
    },
    {
      "fullUrl": "urn:uuid:cdf1e6a5-751b-3d68-9f97-fe47ac03d989",
      "resource": {
        "resourceType": "Condition",
        "id": "cdf1e6a5-751b-3d68-9f97-fe47ac03d989",
        "identifier": [
          {
            "system": "urn:ietf:rfc:3986",
            "value": "urn:oid:1.2.840.113619.21.1.139060385287897942.10.1591243504293.332379"
          }
        ],
        "category": [
          {
            "coding": [
              {
                "code": "problem-item-list",
                "display": "Problem List Item",
                "system": "http://hl7.org/fhir/us/core/ValueSet/us-core-condition-category"
              }
            ]
          }
        ],
        "code": {
          "coding": [
            {
              "code": "55607006",
              "system": "http://snomed.info/sct",
              "display": "Problem"
            }
          ]
        },
        "subject": {
          "reference": "Patient/b3f6804e-58aa-45bd-e32e-550f834a47c6"
        }
      },
      "request": {
        "method": "PUT",
        "url": "Condition/cdf1e6a5-751b-3d68-9f97-fe47ac03d989"
      }
    },
    {
      "fullUrl": "urn:uuid:b17f2cd4-cec3-ed71-cd0a-fde991d67d55",
      "resource": {
        "resourceType": "DiagnosticReport",
        "id": "b17f2cd4-cec3-ed71-cd0a-fde991d67d55",
        "identifier": [
          {
            "system": "urn:oid:1.2.840.113619.21.1.139060385287897942.9",
            "value": "Observation/1906773452818400",
            "assigner": {
              "display": "31913-41995-12761042 API Resource Identifier"
            }
          }
        ],
        "status": "final",
        "code": {
          "coding": [
            {
              "code": "30954-2",
              "system": "http://loinc.org",
              "display": "RESULTS"
            }
          ]
        },
        "subject": {
          "reference": "Patient/b3f6804e-58aa-45bd-e32e-550f834a47c6"
        },
        "result": [
          {
            "reference": "Observation/5a06332a-6295-a635-19f8-5ed3c672b907"
          },
          {
            "reference": "Observation/f59e664b-2db8-ca3a-4e57-2dcbba97dcd3"
          },
          {
            "reference": "Observation/87045903-06b6-c8c0-b4f0-5a40fca078d0"
          }
        ]
      },
      "request": {
        "method": "PUT",
        "url": "DiagnosticReport/b17f2cd4-cec3-ed71-cd0a-fde991d67d55"
      }
    },
    {
      "fullUrl": "urn:uuid:5a06332a-6295-a635-19f8-5ed3c672b907",
      "resource": {
        "resourceType": "Observation",
        "id": "5a06332a-6295-a635-19f8-5ed3c672b907",
        "meta": {
          "profile": [
            "http://hl7.org/fhir/us/ecr/StructureDefinition/us-ph-lab-result-observation"
          ]
        },
        "identifier": [
          {
            "system": "urn:oid:1.2.840.113619.21.1.139060385287897942.9",
            "value": "Observation/1906773452818400",
            "assigner": {
              "display": "31913-41995-12761042 API Resource Identifier"
            }
          }
        ],
        "category": [
          {
            "coding": [
              {
                "system": "http://terminology.hl7.org/CodeSystem/observation-category",
                "code": "laboratory"
              }
            ]
          }
        ],
        "status": "final",
        "code": {
          "coding": [
            {
              "code": "5291-0",
              "system": "http://loinc.org",
              "display": "Reagin Ab [Units/volume] in Serum by VDRL"
            },
            {
              "code": "308",
              "system": "1.2.840.113619.21.100.12.1053.139060385287897942",
              "display": "RPR"
            }
          ],
          "text": "rapid plasma reagin antibody, serum"
        },
        "effectiveDateTime": "2020-06-01T16:27:00-05:00",
        "valueString": "Non Reactive",
        "referenceRange": [
          {
            "text": "Non Reactive"
          }
        ],
        "subject": {
          "reference": "Patient/b3f6804e-58aa-45bd-e32e-550f834a47c6"
        }
      },
      "request": {
        "method": "PUT",
        "url": "Observation/5a06332a-6295-a635-19f8-5ed3c672b907"
      }
    },
    {
      "fullUrl": "urn:uuid:f59e664b-2db8-ca3a-4e57-2dcbba97dcd3",
      "resource": {
        "resourceType": "Observation",
        "id": "f59e664b-2db8-ca3a-4e57-2dcbba97dcd3",
        "meta": {
          "profile": [
            "http://hl7.org/fhir/us/ecr/StructureDefinition/us-ph-lab-result-observation"
          ]
        },
        "identifier": [
          {
            "system": "urn:oid:1.2.840.113619.21.1.139060385287897942.9",
            "value": "Observation/1906773451818360",
            "assigner": {
              "display": "31913-41995-12761042 API Resource Identifier"
            }
          }
        ],
        "category": [
          {
            "coding": [
              {
                "system": "http://terminology.hl7.org/CodeSystem/observation-category",
                "code": "laboratory"
              }
            ]
          }
        ],
        "status": "final",
        "code": {
          "coding": [
            {
              "code": "24111-7",
              "system": "http://loinc.org",
              "display": "Neisseria gonorrhoeae DNA [Presence] in Unspecified specimen by NAA with probe detection"
            },
            {
              "code": "2719",
              "system": "1.2.840.113619.21.100.12.1053.139060385287897942",
              "display": "GC DNA PROBE"
            }
          ],
          "text": "Neisseria gonorrhoeae DNA probe"
        },
        "effectiveDateTime": "2020-06-01T16:27:00-05:00",
        "valueString": "Positive",
        "referenceRange": [
          {
            "text": "Negative"
          }
        ],
        "interpretation": [
          {
            "coding": [
              {
                "code": "A",
                "system": "http://terminology.hl7.org/CodeSystem/v3-ObservationInterpretation",
                "display": "Abnormal"
              }
            ],
            "text": "Abnormal"
          }
        ],
        "subject": {
          "reference": "Patient/b3f6804e-58aa-45bd-e32e-550f834a47c6"
        }
      },
      "request": {
        "method": "PUT",
        "url": "Observation/f59e664b-2db8-ca3a-4e57-2dcbba97dcd3"
      }
    },
    {
      "fullUrl": "urn:uuid:87045903-06b6-c8c0-b4f0-5a40fca078d0",
      "resource": {
        "resourceType": "Observation",
        "id": "87045903-06b6-c8c0-b4f0-5a40fca078d0",
        "meta": {
          "profile": [
            "http://hl7.org/fhir/us/ecr/StructureDefinition/us-ph-lab-result-observation"
          ]
        },
        "identifier": [
          {
            "system": "urn:oid:1.2.840.113619.21.1.139060385287897942.9",
            "value": "Observation/1906773451818340",
            "assigner": {
              "display": "31913-41995-12761042 API Resource Identifier"
            }
          }
        ],
        "category": [
          {
            "coding": [
              {
                "system": "http://terminology.hl7.org/CodeSystem/observation-category",
                "code": "laboratory"
              }
            ]
          }
        ],
        "status": "final",
        "code": {
          "coding": [
            {
              "code": "21613-5",
              "system": "http://loinc.org",
              "display": "Chlamydia trachomatis DNA [Presence] in Unspecified specimen by NAA with probe detection"
            },
            {
              "code": "14722",
              "system": "1.2.840.113619.21.100.12.1053.139060385287897942",
              "display": "CHLAMYD DNA"
            }
          ],
          "text": "chlamydia DNA probe"
        },
        "effectiveDateTime": "2020-06-01T16:27:00-05:00",
        "valueString": "Positive",
        "referenceRange": [
          {
            "text": "Negative"
          }
        ],
        "interpretation": [
          {
            "coding": [
              {
                "code": "A",
                "system": "http://terminology.hl7.org/CodeSystem/v3-ObservationInterpretation",
                "display": "Abnormal"
              }
            ],
            "text": "Abnormal"
          }
        ],
        "subject": {
          "reference": "Patient/b3f6804e-58aa-45bd-e32e-550f834a47c6"
        }
      },
      "request": {
        "method": "PUT",
        "url": "Observation/87045903-06b6-c8c0-b4f0-5a40fca078d0"
      }
    },
    {
      "fullUrl": "urn:uuid:083f1c77-a016-cfd0-9105-52ebd20a4785",
      "resource": {
        "resourceType": "Observation",
        "id": "083f1c77-a016-cfd0-9105-52ebd20a4785",
        "meta": {
          "profile": [
            "http://hl7.org/fhir/StructureDefinition/Observation"
          ]
        },
        "identifier": [
          {
            "system": "urn:oid:1.2.840.113619.21.1.139060385287897942.9",
            "value": "Observation/1906647279967810",
            "assigner": {
              "display": "31913-41995-12761042 API Resource Identifier"
            }
          }
        ],
        "category": [
          {
            "coding": [
              {
                "system": "http://terminology.hl7.org/CodeSystem/observation-category",
                "code": "social-history"
              }
            ]
          }
        ],
        "status": "final",
        "code": {
          "coding": [
            {
              "code": "229819007",
              "system": "http://snomed.info/sct",
              "display": "Tobacco use and exposure"
            },
            {
              "code": "2739",
              "system": "1.2.840.113619.21.100.12.1053.139060385287897942",
              "display": "PAS CIG SMOK"
            }
          ],
          "text": "passive cigarette smoke exposure"
        },
        "effectiveDateTime": "2020-06-01T16:10:53-05:00",
        "valueString": "No",
        "subject": {
          "reference": "Patient/b3f6804e-58aa-45bd-e32e-550f834a47c6"
        }
      },
      "request": {
        "method": "PUT",
        "url": "Observation/083f1c77-a016-cfd0-9105-52ebd20a4785"
      }
    },
    {
      "fullUrl": "urn:uuid:b7f29426-0a67-1918-fbf5-cd2676e31675",
      "resource": {
        "resourceType": "Observation",
        "id": "b7f29426-0a67-1918-fbf5-cd2676e31675",
        "meta": {
          "profile": [
            "http://hl7.org/fhir/StructureDefinition/Observation"
          ]
        },
        "identifier": [
          {
            "system": "urn:oid:1.2.840.113619.21.1.139060385287897942.9",
            "value": "Observation/1906647251966770",
            "assigner": {
              "display": "31913-41995-12761042 API Resource Identifier"
            }
          }
        ],
        "category": [
          {
            "coding": [
              {
                "system": "http://terminology.hl7.org/CodeSystem/observation-category",
                "code": "social-history"
              }
            ]
          }
        ],
        "status": "final",
        "code": {
          "coding": [
            {
              "code": "549318",
              "system": "1.2.840.113619.21.100.12.1053.139060385287897942",
              "display": "VAPE_USE"
            },
            {
              "system": "1.2.840.113619.21.100.12.1053.139060385287897942"
            }
          ],
          "text": "if the patient is using/has used a vaping item, Current, Former, Never Used, Not asked"
        },
        "effectiveDateTime": "2020-06-01T16:10:53-05:00",
        "valueString": "No",
        "subject": {
          "reference": "Patient/b3f6804e-58aa-45bd-e32e-550f834a47c6"
        }
      },
      "request": {
        "method": "PUT",
        "url": "Observation/b7f29426-0a67-1918-fbf5-cd2676e31675"
      }
    },
    {
      "fullUrl": "urn:uuid:e52fd7f3-4a61-ab5c-d7e1-b76ad6af323a",
      "resource": {
        "resourceType": "Observation",
        "id": "e52fd7f3-4a61-ab5c-d7e1-b76ad6af323a",
        "meta": {
          "profile": [
            "http://hl7.org/fhir/StructureDefinition/Observation"
          ]
        },
        "identifier": [
          {
            "system": "urn:oid:1.2.840.113619.21.1.139060385287897942.9",
            "value": "Observation/1906647251966730",
            "assigner": {
              "display": "31913-41995-12761042 API Resource Identifier"
            }
          }
        ],
        "category": [
          {
            "coding": [
              {
                "system": "http://terminology.hl7.org/CodeSystem/observation-category",
                "code": "social-history"
              }
            ]
          }
        ],
        "status": "final",
        "code": {
          "coding": [
            {
              "code": "304549008",
              "system": "http://snomed.info/sct",
              "display": "Giving encouragement to exercise (procedure)"
            },
            {
              "code": "156247",
              "system": "1.2.840.113619.21.100.12.1053.139060385287897942",
              "display": "EXERPRG REF"
            }
          ],
          "text": "Exercise Program Referral"
        },
        "effectiveDateTime": "2020-06-01T16:10:53-05:00",
        "valueString": "T",
        "subject": {
          "reference": "Patient/b3f6804e-58aa-45bd-e32e-550f834a47c6"
        }
      },
      "request": {
        "method": "PUT",
        "url": "Observation/e52fd7f3-4a61-ab5c-d7e1-b76ad6af323a"
      }
    },
    {
      "fullUrl": "urn:uuid:3d6ef05b-267f-c1d2-3e4e-f4988926efc4",
      "resource": {
        "resourceType": "Observation",
        "id": "3d6ef05b-267f-c1d2-3e4e-f4988926efc4",
        "meta": {
          "profile": [
            "http://hl7.org/fhir/StructureDefinition/Observation"
          ]
        },
        "identifier": [
          {
            "system": "urn:oid:1.2.840.113619.21.1.139060385287897942.9",
            "value": "Observation/1906647251966710",
            "assigner": {
              "display": "31913-41995-12761042 API Resource Identifier"
            }
          }
        ],
        "category": [
          {
            "coding": [
              {
                "system": "http://terminology.hl7.org/CodeSystem/observation-category",
                "code": "social-history"
              }
            ]
          }
        ],
        "status": "final",
        "code": {
          "coding": [
            {
              "code": "156251",
              "system": "1.2.840.113619.21.100.12.1053.139060385287897942",
              "display": "WGTMGMTCOUNS"
            },
            {
              "system": "1.2.840.113619.21.100.12.1053.139060385287897942"
            }
          ],
          "text": "Weight Management Counseling Provided"
        },
        "effectiveDateTime": "2020-06-01T16:10:53-05:00",
        "valueString": "T",
        "subject": {
          "reference": "Patient/b3f6804e-58aa-45bd-e32e-550f834a47c6"
        }
      },
      "request": {
        "method": "PUT",
        "url": "Observation/3d6ef05b-267f-c1d2-3e4e-f4988926efc4"
      }
    },
    {
      "fullUrl": "urn:uuid:18f7fcf4-4cb1-76a3-d858-c5c2104975d2",
      "resource": {
        "resourceType": "Observation",
        "id": "18f7fcf4-4cb1-76a3-d858-c5c2104975d2",
        "meta": {
          "profile": [
            "http://hl7.org/fhir/StructureDefinition/Observation"
          ]
        },
        "identifier": [
          {
            "system": "urn:oid:1.2.840.113619.21.1.139060385287897942.9",
            "value": "Observation/1906647147960470",
            "assigner": {
              "display": "31913-41995-12761042 API Resource Identifier"
            }
          }
        ],
        "category": [
          {
            "coding": [
              {
                "system": "http://terminology.hl7.org/CodeSystem/observation-category",
                "code": "social-history"
              }
            ]
          }
        ],
        "status": "final",
        "code": {
          "coding": [
            {
              "code": "241375",
              "system": "1.2.840.113619.21.100.12.1053.139060385287897942",
              "display": "NUTRITIONIVN"
            },
            {
              "system": "1.2.840.113619.21.100.12.1053.139060385287897942"
            }
          ],
          "text": "Nutrition intervention"
        },
        "effectiveDateTime": "2020-06-01T16:10:53-05:00",
        "valueString": "T",
        "subject": {
          "reference": "Patient/b3f6804e-58aa-45bd-e32e-550f834a47c6"
        }
      },
      "request": {
        "method": "PUT",
        "url": "Observation/18f7fcf4-4cb1-76a3-d858-c5c2104975d2"
      }
    },
    {
      "fullUrl": "urn:uuid:2bc72df2-9418-2389-e6b4-5122468d9ff7",
      "resource": {
        "resourceType": "Observation",
        "id": "2bc72df2-9418-2389-e6b4-5122468d9ff7",
        "meta": {
          "profile": [
            "http://hl7.org/fhir/StructureDefinition/Observation"
          ]
        },
        "identifier": [
          {
            "system": "urn:oid:1.2.840.113619.21.1.139060385287897942.9",
            "value": "Observation/1906647095958810",
            "assigner": {
              "display": "31913-41995-12761042 API Resource Identifier"
            }
          }
        ],
        "category": [
          {
            "coding": [
              {
                "system": "http://terminology.hl7.org/CodeSystem/observation-category",
                "code": "social-history"
              }
            ]
          }
        ],
        "status": "final",
        "code": {
          "coding": [
            {
              "code": "418494",
              "system": "1.2.840.113619.21.100.12.1053.139060385287897942",
              "display": "CHANCEPREGN"
            },
            {
              "system": "1.2.840.113619.21.100.12.1053.139060385287897942"
            }
          ],
          "text": "is there any chance that you could be pregnant?"
        },
        "effectiveDateTime": "2020-06-01T16:10:53-05:00",
        "valueString": "No",
        "subject": {
          "reference": "Patient/b3f6804e-58aa-45bd-e32e-550f834a47c6"
        }
      },
      "request": {
        "method": "PUT",
        "url": "Observation/2bc72df2-9418-2389-e6b4-5122468d9ff7"
      }
    },
    {
      "fullUrl": "urn:uuid:a0e00b3c-e248-6f10-1c37-5782ba3cdb2b",
      "resource": {
        "resourceType": "Observation",
        "id": "a0e00b3c-e248-6f10-1c37-5782ba3cdb2b",
        "meta": {
          "profile": [
            "http://hl7.org/fhir/StructureDefinition/Observation"
          ]
        },
        "identifier": [
          {
            "system": "urn:oid:1.2.840.113619.21.1.139060385287897942.9",
            "value": "Observation/1906647095958790",
            "assigner": {
              "display": "31913-41995-12761042 API Resource Identifier"
            }
          }
        ],
        "category": [
          {
            "coding": [
              {
                "system": "http://terminology.hl7.org/CodeSystem/observation-category",
                "code": "social-history"
              }
            ]
          }
        ],
        "status": "final",
        "code": {
          "coding": [
            {
              "code": "72166-2",
              "system": "http://loinc.org",
              "display": "Tobacco smoking status NHIS"
            },
            {
              "code": "11366-2",
              "system": "http://loinc.org",
              "display": "History of tobacco use Narrative"
            },
            {
              "code": "229819007",
              "system": "http://snomed.info/sct",
              "display": "Tobacco use and exposure"
            },
            {
              "code": "300015",
              "system": "1.2.840.113619.21.100.12.1053.139060385287897942",
              "display": "SMOK STATUS"
            }
          ],
          "text": "smoking status"
        },
        "effectiveDateTime": "2020-06-01T16:10:53-05:00",
        "valueCodeableConcept": {
          "coding": [
            {
              "code": "266919005",
              "system": "http://snomed.info/sct",
              "display": "Never smoked tobacco (finding)"
            },
            {
              "code": "72166-2",
              "system": "http://loinc.org",
              "display": "Tobacco smoking status NHIS"
            }
          ],
          "text": "never smoker"
        },
        "subject": {
          "reference": "Patient/b3f6804e-58aa-45bd-e32e-550f834a47c6"
        }
      },
      "request": {
        "method": "PUT",
        "url": "Observation/a0e00b3c-e248-6f10-1c37-5782ba3cdb2b"
      }
    }
  ]
}
}