{
  "Status": "OK",
  "FhirResource": {
  "resourceType": "Bundle",
  "type": "batch",
  "entry": [
    {
      "fullUrl": "1906844699671510",
      "resource": {
        "resourceType": "Composition",
        "id": "1906844699671510",
        "meta": {
          "profile": [
            "http://hl7.org/fhir/us/ecr/StructureDefinition/eicr-composition"
          ]
        },
        "identifier": {
          "use": "official",
          "type": {
            "coding": [
              {
                "code": "55751-2",
                "system": "http://loinc.org",
                "display": "Initial Public Health Case Report"
              }
            ]
          }
        },
        "extension": [
          {
            "url": "http://hl7.org/fhir/StructureDefinition/composition-clinicaldocument-versionNumber"
          },
          {
            "url": "https://www.hl7.org/implement/standards/product_brief.cfm?product_id=436",
            "valueString": "2016-12-01"
          }
        ],
        "status": "final",
        "type": {
          "coding": [
            {
              "code": "55751-2",
              "system": "http://loinc.org",
              "display": "Initial Public Health Case Report"
            }
          ]
        },
        "date": "2020-06-03T23:05:03-05:00",
        "title": "Initial Public Health Case Report",
        "confidentiality": "N",
        "event": [
          {
            "period": {
              "start": "2020-06-03T23:05:03-05:00"
            }
          }
        ],
        "section": [
          {
            "id": "8981435a-839b-fd94-a28d-a3f65651af94",
            "title": "HISTORY OF PRESENT ILLNESS",
            "text": {
              "status": "generated",
              "div": "\" This is a phone conversation in lieu of in-office visit due to the coronavirus emergency.\"CC; F/y from breast l;ump HPI: Right breast lump beneath areola getting smaller, s=drained 2 days ago, shote in colco . no odor. In generla not painful. Darined only a very small amount. finishing antibiotics today . no fever.Still no Ultrasound appointemnt Not red at all... Lump is about the size of half a grape now..., Chlamydia trachomatis - New treating tnoday for thsi and GC also checking STI's and discussed PRep., Breast lump or mass - New suspect abscess beneath piercing site. Rx for clindamycin. Will do telehealth f/u in one week. posssible neoplasm., Depo Provera injection administered - New RVe'd calcium intake, 28 yo G2 1011 LMP 3/8/2020 On DepoCC; Breast issue and needs DEpo. HPI: ALso pt never was treated for GC/ HClmaydai diagnosed in JAnuary 2020. Last intercourse was JAn 2020, Right breast for 6 months has had some swelling. about 18 months ago had nipples peireced. The swelling comes and goes, can swell and leak fluid with gren or red discharge, gets very painful PT has picture of large amount grey/yellow drainage like ous from rigth lateral nipple. ( this occured after ithcing, and heat aplpied), No, No, No, No, No, in-office, phone"
            },
            "code": {
              "coding": [
                {
                  "code": "10164-2",
                  "system": "http://loinc.org",
                  "display": "HISTORY OF PRESENT ILLNESS"
                }
              ]
            },
            "mode": "snapshot"
          },
          {
            "id": "bff31c55-da6c-1f08-2819-bb691d4e5255",
            "title": "REASON FOR VISIT",
            "text": {
              "status": "generated",
              "div": "breast exam"
            },
            "code": {
              "coding": [
                {
                  "code": "29299-5",
                  "system": "http://loinc.org",
                  "display": "REASON FOR VISIT"
                }
              ]
            },
            "mode": "snapshot",
            "extension": [
              {
                "url": "http://hl7.org/fhir/cda/ccda/StructureDefinition/2.16.840.1.113883.10.20.22.2.12",
                "valueString": "breast exam"
              }
            ]
          },
          {
            "id": "0fac35e0-11ea-aeb5-6dcb-63d56a9931c6",
            "title": "SOCIAL HISTORY",
            "text": {
              "status": "generated",
              "div": "<table border=\"1\" width=\"100%\" xmlns=\"urn:hl7-org:v3\"><thead><tr><th align=\"left\">Date</th><th align=\"left\">Observation</th><th align=\"left\">Value</th><th align=\"left\">Provider</th></tr></thead><tbody><tr ID=\"d58605e13-1.2.840.113619.21.1.139060385287897942.10.1591243503499.224295\"><td align=\"left\">2020/04/29</td><td>Exercise Program Referral</td><td>T</td><td>Katrina Lee </td></tr><tr ID=\"d58605e104-1.2.840.113619.21.1.139060385287897942.10.1591243503499.224295\"><td align=\"center\">\"</td><td>Weight Management Counseling Provided</td><td>T</td><td>Katrina Lee </td></tr><tr ID=\"d58605e191-1.2.840.113619.21.1.139060385287897942.10.1591243503499.224295\"><td align=\"center\">\"</td><td>Nutrition intervention</td><td>T</td><td>Katrina Lee </td></tr><tr ID=\"d58605e278-1.2.840.113619.21.1.139060385287897942.10.1591243503499.224295\"><td align=\"center\">\"</td><td>assessment of health literacy (NCQA PCMH 2014 Standards, 3C10)</td><td>Adequate</td><td>Katrina Lee </td></tr><tr ID=\"d58605e456-1.2.840.113619.21.1.139060385287897942.10.1591243503499.224295\"><td align=\"center\">\"</td><td>is there any chance that you could be pregnant?</td><td>No</td><td>Katrina Lee </td></tr><tr ID=\"d58605e544-1.2.840.113619.21.1.139060385287897942.10.1591243503499.224295\"><td align=\"center\">\"</td><td>if the patient is using/has used a vaping item, Current, Former, Never Used, Not asked</td><td>No</td><td>Katrina Lee </td></tr><tr ID=\"d58605e631-1.2.840.113619.21.1.139060385287897942.10.1591243503499.224295\"><td align=\"center\">\"</td><td>tobacco use (cigarettes, cigar, chew, pipe)</td><td>Currently</td><td>Katrina Lee </td></tr><tr ID=\"d58605e718-1.2.840.113619.21.1.139060385287897942.10.1591243503499.224295\"><td align=\"center\">\"</td><td>smoking status</td><td>current every day smoker</td><td>Katrina Lee </td></tr><tr ID=\"d58605e825-1.2.840.113619.21.1.139060385287897942.10.1591243503499.224295\"><td align=\"left\">2020/04/28</td><td>Lung Cancer Screening - 15 year tobacco use history</td><td>Yes</td><td>Katrina Lee </td></tr><tr ID=\"d58605e912-1.2.840.113619.21.1.139060385287897942.10.1591243503499.224295\"><td align=\"left\">2020/04/27</td><td>time of call</td><td>04/27/2020 3:31 PM</td><td>Yvette Macias </td></tr></tbody></table>"
            },
            "code": {
              "coding": [
                {
                  "code": "29762-2",
                  "system": "http://loinc.org",
                  "display": "SOCIAL HISTORY"
                }
              ]
            },
            "mode": "snapshot",
            "entry": [
              {
                "reference": "Observation/dfb3ba94-f314-9556-a4d1-36574b33d766"
              },
              {
                "reference": "Observation/38d001e9-ac39-6088-3d49-4e9f05dc9f1c"
              },
              {
                "reference": "Observation/5a9eb653-b91e-599d-ca8c-920b09be494f"
              },
              {
                "reference": "Observation/8c06e477-461c-2313-f0a7-7ae0506f2085"
              },
              {
                "reference": "Observation/65d04b97-3a25-4995-45e7-4ff24ece8936"
              },
              {
                "reference": "Observation/0d5abcc0-d5ee-2b5b-0ee1-5ed8bbc5c0a1"
              },
              {
                "reference": "Observation/67b85356-621e-e6f8-e0a2-50069734e9d3"
              },
              {
                "reference": "Observation/e168f919-b390-f3df-3667-6c1a70e71258"
              },
              {
                "reference": "Observation/7e5be60c-f4b6-4cca-8f5f-54c56544fd34"
              },
              {
                "reference": "Observation/c8105af6-b96e-5e7d-68c4-59a9fbf7b717"
              }
            ]
          },
          {
            "id": "7e0383ad-f361-60b8-3c52-72b5e37d8542",
            "title": "ENCOUNTERS",
            "text": {
              "status": "generated",
              "div": "<table border=\"1\" width=\"100%\" xmlns=\"urn:hl7-org:v3\"><thead><tr><th align=\"left\">Date</th><th align=\"left\">Type</th><th align=\"left\">Provider</th><th align=\"left\">Location</th><th align=\"left\">Encounter Diagnosis</th></tr></thead><tbody><tr ID=\"d58583e13-1.2.840.113619.21.1.139060385287897942.10.1591243503451.181800\"><td>2020/05/08 - 2020/05/08</td><td>Virtual Office Visit</td><td><list listType=\"unordered\"><item>Stephanie Cox-Batson </item></list></td><td>Komed Holman Health Center</td><td>UNK</td></tr><tr ID=\"d58583e104-1.2.840.113619.21.1.139060385287897942.10.1591243503451.181800\"><td>2020/05/01 - 2020/05/01</td><td>Phone Note</td><td><list listType=\"unordered\"><item>Stephanie Cox-Batson </item></list></td><td>Komed Holman Health Center</td><td>UNK</td></tr><tr ID=\"d58583e186-1.2.840.113619.21.1.139060385287897942.10.1591243503451.181800\"><td>2020/04/29 - 2020/04/29</td><td>Lab Report</td><td><list listType=\"unordered\"><item>Stephanie Cox-Batson </item><item>LinkLogic </item></list></td><td>Near North Health Service Corporation</td><td>UNK</td></tr><tr ID=\"d58583e274-1.2.840.113619.21.1.139060385287897942.10.1591243503451.181800\"><td>2020/04/30 - 2020/04/30</td><td>Progress Note - Exp</td><td><list listType=\"unordered\"><item>Michelle Dotts </item></list></td><td>Komed Holman Health Center</td><td>UNK</td></tr><tr ID=\"d58583e356-1.2.840.113619.21.1.139060385287897942.10.1591243503451.181800\"><td>2020/04/29 - 2020/04/29</td><td>Lab Report</td><td><list listType=\"unordered\"><item>Stephanie Cox-Batson </item><item>LinkLogic </item></list></td><td>Near North Health Service Corporation</td><td>UNK</td></tr><tr ID=\"d58583e444-1.2.840.113619.21.1.139060385287897942.10.1591243503451.181800\"><td>2020/04/29 - 2020/04/29</td><td>Office Visit</td><td><list listType=\"unordered\"><item>Stephanie Cox-Batson </item><item>Katrina Lee </item><item>Olubunmi Erinolu </item><item>Crystal Flowers RN </item><item>Salama Witherspoon </item></list></td><td>Komed Holman Health Center</td><td><list listType=\"unordered\"><item>Gonorrhea</item><item>Chlamydia trachomatis</item><item>Depo Provera injection administered</item><item>Breast lump or mass</item></list></td></tr><tr ID=\"d58583e568-1.2.840.113619.21.1.139060385287897942.10.1591243503451.181800\"><td>2020/04/28 - 2020/04/28</td><td>External Correspondence</td><td><list listType=\"unordered\"><item>Katrina Lee </item></list></td><td>Komed Holman Health Center</td><td>UNK</td></tr><tr ID=\"d58583e650-1.2.840.113619.21.1.139060385287897942.10.1591243503451.181800\"><td>2020/04/27 - 2020/04/27</td><td>Phone Note</td><td><list listType=\"unordered\"><item>Yvette Macias </item></list></td><td>Winfield Moody Health Center</td><td>UNK</td></tr><tr ID=\"d58583e732-1.2.840.113619.21.1.139060385287897942.10.1591243503451.181800\"><td>2020/04/02 - 2020/04/02</td><td>Phone Note</td><td><list listType=\"unordered\"><item>Cynthia Tran </item></list></td><td>Winfield Moody Health Center</td><td>UNK</td></tr></tbody></table>"
            },
            "code": {
              "coding": [
                {
                  "code": "46240-8",
                  "system": "http://loinc.org",
                  "display": "ENCOUNTERS"
                }
              ]
            },
            "mode": "snapshot"
          },
          {
            "id": "2801d114-7c9c-8c92-dfd9-0555a4898294",
            "title": "MEDICATIONS ADMINISTERED",
            "text": {
              "status": "generated",
              "div": "<table border=\"1\" width=\"100%\" xmlns=\"urn:hl7-org:v3\"><thead><tr><th align=\"left\">Medication</th><th align=\"left\">Status</th><th align=\"left\">Directions</th><th align=\"left\">Dates</th><th align=\"left\">Provider</th><th align=\"left\">Indications</th><th align=\"left\">Fill Instructions</th></tr></thead><tbody><tr ID=\"d58625e13-1.2.840.113619.21.1.139060385287897942.10.1591243503515.474126\"><td ID=\"d58625e100\">DEPO-PROVERA</td><td>in-progress</td><td ID=\"d58625e109\">Right_Deltoid</td><td>2020/04/29 - 2020/04/29</td><td>Crystal Flowers RN </td><td>Family planning</td><td ID=\"d58625e102a1065-1.2.840.113619.21.1.139060385287897942.10.1591243503515.474126\">pt tolorated well discussed the need to return on time</td></tr><tr ID=\"d58625e126-1.2.840.113619.21.1.139060385287897942.10.1591243503515.474126\"><td ID=\"d58625e213\">CEFTRIAXONE SODIUM</td><td>in-progress</td><td ID=\"d58625e221\">Right Deltoid</td><td>2020/04/29 - 2020/04/29</td><td>Crystal Flowers RN </td><td>Gonorrhea</td><td /></tr></tbody></table>"
            },
            "code": {
              "coding": [
                {
                  "code": "29549-3",
                  "system": "http://loinc.org",
                  "display": "MEDICATIONS ADMINISTERED"
                }
              ]
            },
            "mode": "snapshot",
            "entry": [
              {
                "reference": "MedicationAdministration/a1424e23-93fd-eaf3-059d-3a285f9e0431"
              },
              {
                "reference": "MedicationAdministration/f2cca9cf-9552-67b6-286a-ec0ddbb88d91"
              }
            ]
          },
          {
            "id": "4745e07f-c9fc-0eb7-e684-38b183deb4ac",
            "title": "HISTORY OF MEDICATION USE",
            "text": {
              "status": "generated",
              "div": "<table border=\"1\" width=\"100%\" xmlns=\"urn:hl7-org:v3\"><thead><tr><th align=\"left\">Medication</th><th align=\"left\">Status</th><th align=\"left\">Instructions</th><th align=\"left\">Dates</th><th align=\"left\">Provider</th><th align=\"left\">Indications</th><th align=\"left\">Comments</th></tr></thead><tbody><tr ID=\"d58677e18-1.2.840.113619.21.1.139060385287897942.10.1591243503675.597772\"><td ID=\"d58677e77\">DEPO-PROVERA 150 MG/ML INTRAMUSCULAR SUSPENSION</td><td>active</td><td ID=\"d58677e80\">Every 3 months</td><td>2020/04/29</td><td>Stephanie Cox-Batson </td><td /><td /></tr><tr ID=\"d58677e96-1.2.840.113619.21.1.139060385287897942.10.1591243503675.597772\"><td ID=\"d58677e155\">CEFTRIAXONE SODIUM 250 MG INJECTION SOLUTION RECONSTITUTED</td><td>active</td><td ID=\"d58677e158\">sig disp one to be given in the office</td><td>2020/04/29</td><td>Stephanie Cox-Batson </td><td /><td /></tr><tr ID=\"d58677e164-1.2.840.113619.21.1.139060385287897942.10.1591243503675.597772\"><td ID=\"d58677e223\">ZITHROMAX 250 MG ORAL TABLET</td><td>active</td><td ID=\"d58677e226\">4 pills orally</td><td>2020/04/29</td><td>Stephanie Cox-Batson </td><td /><td /></tr><tr ID=\"d58677e242-1.2.840.113619.21.1.139060385287897942.10.1591243503675.597772\"><td ID=\"d58677e301\">OXYBUTYNIN CHLORIDE 5 MG ORAL TABLET</td><td>active</td><td ID=\"d58677e304\">take 1 tab daily</td><td>2020/01/17</td><td>Cynthia Tran </td><td /><td /></tr><tr ID=\"d58677e327-1.2.840.113619.21.1.139060385287897942.10.1591243503675.597772\"><td ID=\"d58677e386\">OSCAL 500/200 D-3 500-200 MG-UNIT ORAL TABLET</td><td>active</td><td ID=\"d58677e389\">take 1 tab twice per day</td><td>2020/01/17</td><td>Cynthia Tran </td><td /><td /></tr><tr ID=\"d58677e412-1.2.840.113619.21.1.139060385287897942.10.1591243503675.597772\"><td ID=\"d58677e471\">DEPO-PROVERA 150 MG/ML INTRAMUSCULAR SUSPENSION</td><td>active</td><td ID=\"d58677e474\">Every 3 months</td><td>2020/01/17</td><td>Cynthia Tran </td><td /><td /></tr><tr ID=\"d58677e491-1.2.840.113619.21.1.139060385287897942.10.1591243503675.597772\"><td ID=\"d58677e550\">DEPO-PROVERA 150 MG/ML INTRAMUSCULAR SUSPENSION</td><td>active</td><td ID=\"d58677e553\">bring to MD office for admin</td><td>2019/06/27</td><td>Lisa Oldham </td><td /><td /></tr><tr ID=\"d58677e569-1.2.840.113619.21.1.139060385287897942.10.1591243503675.597772\"><td ID=\"d58677e624\">MULTI-VITAMIN DAILY ORAL TABLET</td><td>active</td><td ID=\"d58677e627\">1 By Mouth Every Day</td><td>2018/06/19</td><td>Runez Bender </td><td /><td /></tr><tr ID=\"d58677e650-1.2.840.113619.21.1.139060385287897942.10.1591243503675.597772\"><td ID=\"d58677e713\">CALCIUM CARBONATE-VITAMIN D 600-400 MG-UNIT ORAL TABLET</td><td>active</td><td ID=\"d58677e716\">one by mouth twice a day (OTC)</td><td>2018/06/19</td><td>Runez Bender </td><td /><td /></tr><tr ID=\"d58677e732-1.2.840.113619.21.1.139060385287897942.10.1591243503675.597772\"><td ID=\"d58677e791\">DEPO-PROVERA 150 MG/ML INTRAMUSCULAR SUSPENSION</td><td>active</td><td ID=\"d58677e794\">Every 3 months Return with medication for the nurse to administer</td><td>2018/06/19</td><td>Runez Bender </td><td /><td /></tr><tr ID=\"d58677e810-1.2.840.113619.21.1.139060385287897942.10.1591243503675.597772\"><td ID=\"d58677e869\">NORCO 5-325 MG ORAL TABLET</td><td>active</td><td ID=\"d58677e872\">Take 1 tab PO q 4-6 hr prn pain</td><td>2018/02/20</td><td>Alina Catana Macovei </td><td /><td /></tr><tr ID=\"d58677e888-1.2.840.113619.21.1.139060385287897942.10.1591243503675.597772\"><td ID=\"d58677e947\">OSCAL 500/200 D-3 500-200 MG-UNIT ORAL TABLET</td><td>active</td><td ID=\"d58677e950\">2 tablets by mouth daily</td><td>2017/05/22</td><td>Suzanne Galloway </td><td /><td /></tr><tr ID=\"d58677e966-1.2.840.113619.21.1.139060385287897942.10.1591243503675.597772\"><td ID=\"d58677e1027\">DEPO-PROVERA 150 MG/ML INTRAMUSCULAR SUSPENSION</td><td>active</td><td ID=\"d58677e1030\">Every 3 months</td><td>2017/05/22</td><td>Suzanne Galloway </td><td /><td /></tr><tr ID=\"d58677e1046-1.2.840.113619.21.1.139060385287897942.10.1591243503675.597772\"><td ID=\"d58677e1105\">CHLORPHENIRAMINE MALEATE 4 MG ORAL TABLET</td><td>active</td><td ID=\"d58677e1108\">one at bedtime</td><td>2016/09/22</td><td>Elizabeth Herzan-Taylor </td><td /><td /></tr><tr ID=\"d58677e1124-1.2.840.113619.21.1.139060385287897942.10.1591243503675.597772\"><td ID=\"d58677e1183\">FLUTICASONE PROPIONATE 50 MCG/ACT NASAL SUSPENSION</td><td>active</td><td ID=\"d58677e1186\">2 sprays per nostrils Every Day</td><td>2016/09/22</td><td>Elizabeth Herzan-Taylor </td><td /><td /></tr><tr ID=\"d58677e1202-1.2.840.113619.21.1.139060385287897942.10.1591243503675.597772\"><td ID=\"d58677e1257\">SE-NATAL 19 29-1 MG ORAL TABLET</td><td>active</td><td ID=\"d58677e1260\">1 pill by mouth once a day.</td><td>2016/07/29</td><td>Shauna Gardino </td><td /><td /></tr></tbody></table>"
            },
            "code": {
              "coding": [
                {
                  "code": "10160-0",
                  "system": "http://loinc.org",
                  "display": "HISTORY OF MEDICATION USE"
                }
              ]
            },
            "mode": "snapshot"
          },
          {
            "id": "4051f480-b01c-32be-662d-05ab085f4326",
            "title": "PROBLEMS",
            "text": {
              "status": "generated",
              "div": "<table border=\"1\" width=\"100%\" xmlns=\"urn:hl7-org:v3\"><thead><tr><th align=\"left\">Condition</th><th align=\"left\">Status</th><th align=\"left\">Date</th><th align=\"left\">Provider</th><th align=\"left\">Notes</th></tr></thead><tbody><tr ID=\"d58587e13-1.2.840.113619.21.1.139060385287897942.10.1591243503483.449436\"><td>Chlamydia trachomatis</td><td>active</td><td>2020/04/29 - 2022/04/29</td><td>Stephanie Cox-Batson </td><td /></tr><tr ID=\"d58587e92-1.2.840.113619.21.1.139060385287897942.10.1591243503483.449436\"><td>Gonorrhea</td><td>active</td><td>2020/04/29 - 2022/04/29</td><td>Stephanie Cox-Batson </td><td /></tr></tbody></table>"
            },
            "code": {
              "coding": [
                {
                  "code": "11450-4",
                  "system": "http://loinc.org",
                  "display": "PROBLEMS"
                }
              ]
            },
            "mode": "snapshot",
            "entry": [
              {
                "display": "Problem - ",
                "reference": "Condition/97745d1c-0d34-04e3-02e7-65bc3bf072f9"
              },
              {
                "display": "Problem - ",
                "reference": "Condition/4a76e0d2-6560-4555-0433-450a2e310366"
              }
            ]
          },
          {
            "id": "3834f540-0a6b-03eb-43c8-0b70076c0c7d",
            "title": "RESULTS",
            "text": {
              "status": "generated",
              "div": "<table border=\"1\" width=\"100%\" xmlns=\"urn:hl7-org:v3\"><thead><tr><th align=\"left\">Date</th><th align=\"left\">Observation</th><th align=\"left\">Value</th><th align=\"left\">Provider</th><th align=\"left\">Reference Range</th><th align=\"left\">Interpretation</th><th align=\"left\">Location</th></tr></thead><tbody><tr ID=\"d58593e13-1.2.840.113619.21.1.139060385287897942.10.1591243503499.759906\"><td align=\"left\">2020/04/29</td><td>rapid plasma reagin antibody, serum</td><td>Non Reactive</td><td>LinkLogic </td><td>Non Reactive</td><td /><td /></tr><tr ID=\"d58593e112-1.2.840.113619.21.1.139060385287897942.10.1591243503499.759906\"><td align=\"center\">\"</td><td>Neisseria gonorrhoeae DNA probe</td><td>Negative</td><td>LinkLogic </td><td>Negative</td><td /><td /></tr><tr ID=\"d58593e211-1.2.840.113619.21.1.139060385287897942.10.1591243503499.759906\"><td align=\"center\">\"</td><td>chlamydia DNA probe</td><td>Positive</td><td>LinkLogic </td><td>Negative</td><td>Abnormal</td><td /></tr></tbody></table>"
            },
            "code": {
              "coding": [
                {
                  "code": "30954-2",
                  "system": "http://loinc.org",
                  "display": "RESULTS"
                }
              ]
            },
            "mode": "snapshot",
            "entry": [
              {
                "reference": "Observation/bcce8c2b-0c3a-c9dd-f584-36fff1ef4e58",
                "display": "rapid plasma reagin antibody, serum"
              },
              {
                "reference": "Observation/5d1a58cd-d1c3-0952-55fb-72c77b309190",
                "display": "Neisseria gonorrhoeae DNA probe"
              },
              {
                "reference": "Observation/ed2bf2cd-8da3-7e6d-6c96-31e9edb6f231",
                "display": "chlamydia DNA probe"
              }
            ]
          }
        ],
        "subject": {
          "reference": "Patient/5ff77161-3cd0-8d97-11d8-e66ff0cf32d5"
        },
        "encounter": {
          "reference": "Encounter/bb44bb8e-af4d-7cf5-b8a0-bfed3557d83a"
        },
        "custodian": {
          "reference": "Organization/2bae76ef-8be0-941b-6672-72b84298d223"
        },
        "author": [
          {
            "reference": "PractitionerRole/9abfda73-a25d-69e5-95d2-96329384db2b"
          },
          {
            "reference": "Device/48c756a8-18ae-5310-e8d7-2de6957e99b8"
          }
        ]
      },
      "request": {
        "method": "PUT",
        "url": "Composition/1906844699671510"
      }
    },
    {
      "fullUrl": "urn:uuid:bb44bb8e-af4d-7cf5-b8a0-bfed3557d83a",
      "resource": {
        "resourceType": "Encounter",
        "id": "bb44bb8e-af4d-7cf5-b8a0-bfed3557d83a",
        "status": "unknown",
        "class": {
          "code": "PHC2237",
          "system": "2.16.840.1.114222.4.5.274",
          "display": "External Encounter"
        },
        "identifier": [
          {
            "extension": {
              "url": "http://hl7.org/fhir/ValueSet/data-absent-reason",
              "valueCode": "not-applicable"
            }
          }
        ],
        "subject": {
          "reference": "Patient/5ff77161-3cd0-8d97-11d8-e66ff0cf32d5"
        },
        "location": [
          {
            "id": "2.16.840.1.113883.4.6",
            "location": {
              "reference": "Location/bdf4bd41-5f95-3434-7bad-c22f469af6db",
              "display": "None"
            },
            "extension": [
              {
                "url": "http://build.fhir.org/ig/HL7/case-reporting/StructureDefinition-us-ph-location-definitions.html#Location.type",
                "valueCodeableConcept": {
                  "coding": [
                    {
                      "system": "http://hl7.org/fhir/sid/us-npi"
                    }
                  ]
                }
              }
            ]
          }
        ],
        "serviceProvider": {
          "reference": "Organization/42e178bb-0fd1-7329-a02e-c06b5c9782b8"
        },
        "participant": [
          {
            "type": [
              {
                "coding": [
                  {
                    "system": "http://terminology.hl7.org/CodeSystem/v3-ParticipationType",
                    "code": "ATND"
                  }
                ]
              }
            ],
            "individual": {
              "reference": "PractitionerRole/e8d30303-e0a1-2dbb-bddb-d208c95aad77"
            }
          }
        ]
      },
      "request": {
        "method": "PUT",
        "url": "Encounter/bb44bb8e-af4d-7cf5-b8a0-bfed3557d83a"
      }
    },
    {
      "fullUrl": "urn:uuid:bdf4bd41-5f95-3434-7bad-c22f469af6db",
      "resource": {
        "resourceType": "Location",
        "id": "bdf4bd41-5f95-3434-7bad-c22f469af6db",
        "identifier": [
          {
            "system": "http://hl7.org/fhir/sid/us-npi",
            "_value": {
              "extension": {
                "url": "http://hl7.org/fhir/ValueSet/data-absent-reason",
                "valueCode": "not-applicable"
              }
            }
          }
        ],
        "type": [
          {
            "coding": [
              {
                "system": "http://hl7.org/fhir/sid/us-npi"
              }
            ]
          }
        ]
      },
      "request": {
        "method": "PUT",
        "url": "Location/bdf4bd41-5f95-3434-7bad-c22f469af6db"
      }
    },
    {
      "fullUrl": "urn:uuid:42e178bb-0fd1-7329-a02e-c06b5c9782b8",
      "resource": {
        "resourceType": "Organization",
        "id": "42e178bb-0fd1-7329-a02e-c06b5c9782b8"
      },
      "request": {
        "method": "PUT",
        "url": "Organization/42e178bb-0fd1-7329-a02e-c06b5c9782b8"
      }
    },
    {
      "fullUrl": "urn:uuid:e8d30303-e0a1-2dbb-bddb-d208c95aad77",
      "resource": {
        "resourceType": "Practitioner",
        "id": "e8d30303-e0a1-2dbb-bddb-d208c95aad77",
        "meta": {
          "profile": [
            "http://hl7.org/fhir/us/core/StructureDefinition/us-core-practitioner"
          ]
        },
        "extension": [
          {
            "url": "http://hl7.org/fhir/StructureDefinition/_datatype",
            "valueString": "Responsible Party"
          }
        ],
        "identifier": [
          {
            "system": "http://hl7.org/fhir/sid/us-npi",
            "_value": {
              "extension": {
                "url": "http://hl7.org/fhir/ValueSet/data-absent-reason",
                "valueCode": "not-applicable"
              }
            }
          }
        ]
      },
      "request": {
        "method": "PUT",
        "url": "Practitioner/e8d30303-e0a1-2dbb-bddb-d208c95aad77"
      }
    },
    {
      "resource": {
        "resourceType": "PractitionerRole",
        "id": "e8d30303-e0a1-2dbb-bddb-d208c95aad77",
        "practitioner": {
          "reference": "Practitioner/e8d30303-e0a1-2dbb-bddb-d208c95aad77"
        },
        "organization": {
          "reference": "Organization/43eaaf8e-f805-d37c-8e4e-77965eef87aa"
        }
      }
    },
    {
      "fullUrl": "urn:uuid:43eaaf8e-f805-d37c-8e4e-77965eef87aa",
      "resource": {
        "resourceType": "Organization",
        "id": "43eaaf8e-f805-d37c-8e4e-77965eef87aa"
      },
      "request": {
        "method": "PUT",
        "url": "Organization/43eaaf8e-f805-d37c-8e4e-77965eef87aa"
      }
    },
    {
      "fullUrl": "urn:uuid:2bae76ef-8be0-941b-6672-72b84298d223",
      "resource": {
        "resourceType": "Organization",
        "id": "2bae76ef-8be0-941b-6672-72b84298d223",
        "identifier": [
          {
            "system": "urn:oid:1.2.840.113619.21.1.139060385287897942.9",
            "value": "Organization/LO-1454412490000610",
            "assigner": {
              "display": " API Resource Identifier"
            }
          },
          {
            "system": "UNK",
            "value": "LO-1454412490000610",
            "assigner": {
              "display": "Organization Identifier"
            }
          },
          {
            "system": "urn:oid:2.16.840.1.113883.4.2",
            "value": "363197647",
            "assigner": {
              "display": "Tax ID number"
            }
          }
        ],
        "name": "Komed Holman Health Center",
        "address": [
          {
            "line": [
              "4259 S. Berkeley"
            ],
            "city": "Chicago",
            "state": "IL",
            "country": "USA",
            "postalCode": "60653"
          }
        ],
        "telecom": [
          {
            "system": "phone",
            "value": "7732687600",
            "use": "work"
          }
        ]
      },
      "request": {
        "method": "PUT",
        "url": "Organization/2bae76ef-8be0-941b-6672-72b84298d223"
      }
    },
    {
      "fullUrl": "urn:uuid:406c3e36-d27a-041b-61a8-e29df69f50e1",
      "resource": {
        "resourceType": "Practitioner",
        "id": "406c3e36-d27a-041b-61a8-e29df69f50e1",
        "meta": {
          "profile": [
            "http://hl7.org/fhir/us/core/StructureDefinition/us-core-practitioner"
          ]
        },
        "identifier": [
          {
            "system": "urn:oid:1.2.840.113619.21.1.139060385287897942.2.2",
            "value": "1467041069000630",
            "assigner": {
              "display": " Providers by PVID"
            }
          },
          {
            "system": "urn:oid:1.2.840.113619.21.1.139060385287897942.2.1",
            "value": "365",
            "assigner": {
              "display": " Providers by DoctorFacility"
            }
          }
        ],
        "name": [
          {
            "family": "Nurse Desk",
            "given": [
              "KH WH"
            ]
          }
        ],
        "address": [
          {
            "line": [
              "Winfield Moody",
              "1276 N Clybourn"
            ],
            "city": "Chicago",
            "state": "IL",
            "postalCode": "60653"
          }
        ],
        "telecom": [
          {
            "system": "phone",
            "value": "3123371073",
            "use": "work"
          },
          {
            "system": "phone",
            "value": "3123377616",
            "use": "mobile"
          }
        ]
      },
      "request": {
        "method": "PUT",
        "url": "Practitioner/406c3e36-d27a-041b-61a8-e29df69f50e1"
      }
    },
    {
      "fullUrl": "urn:uuid:01fe444a-5df3-6915-447b-5b16fe2c6872",
      "resource": {
        "resourceType": "Organization",
        "id": "01fe444a-5df3-6915-447b-5b16fe2c6872",
        "identifier": [
          {
            "system": "urn:oid:1.2.840.113619.21.1.139060385287897942.9",
            "value": "Organization/DF-76",
            "assigner": {
              "display": " API Resource Identifier"
            }
          },
          {
            "system": "UNK",
            "value": "DF-76",
            "assigner": {
              "display": "Organization Identifier"
            }
          },
          {
            "system": "http://hl7.org/fhir/sid/us-npi",
            "value": "1821079088",
            "assigner": {
              "display": "National Provider Identifier"
            }
          },
          {
            "system": "urn:oid:2.16.840.1.113883.4.2",
            "value": "363197647",
            "assigner": {
              "display": "Tax ID number"
            }
          }
        ],
        "name": "Winfield Moody Health Center",
        "address": [
          {
            "line": [
              "1276 N Clybourn"
            ],
            "city": "Chicago",
            "state": "IL ",
            "postalCode": "60610     "
          }
        ],
        "telecom": [
          {
            "system": "phone",
            "value": "3123371073     ",
            "use": "work"
          }
        ]
      },
      "request": {
        "method": "PUT",
        "url": "Organization/01fe444a-5df3-6915-447b-5b16fe2c6872"
      }
    },
    {
      "resource": {
        "resourceType": "PractitionerRole",
        "id": "9abfda73-a25d-69e5-95d2-96329384db2b",
        "organization": {
          "reference": "Organization/01fe444a-5df3-6915-447b-5b16fe2c6872"
        },
        "practitioner": {
          "reference": "Practitioner/406c3e36-d27a-041b-61a8-e29df69f50e1"
        }
      }
    },
    {
      "fullUrl": "urn:uuid:48c756a8-18ae-5310-e8d7-2de6957e99b8",
      "resource": {
        "resourceType": "Device",
        "id": "48c756a8-18ae-5310-e8d7-2de6957e99b8",
        "identifier": [
          {
            "system": "urn:ietf:rfc:3986",
            "value": "urn:oid:1.2.840.113619.21.1.139060385287897942.11"
          }
        ],
        "manufacturer": "12.3/9.12",
        "version": [
          {
            "value": "GE Healthcare API Server"
          }
        ],
        "property": [
          {
            "type": {
              "coding": [
                {
                  "system": "http://hl7.org/fhir/device-category",
                  "code": "software",
                  "display": "software"
                }
              ]
            }
          }
        ],
        "owner": {
          "reference": "Organization/2bae76ef-8be0-941b-6672-72b84298d223"
        }
      },
      "request": {
        "method": "PUT",
        "url": "Device/48c756a8-18ae-5310-e8d7-2de6957e99b8"
      }
    },
    {
      "fullUrl": "urn:uuid:5ff77161-3cd0-8d97-11d8-e66ff0cf32d5",
      "resource": {
        "resourceType": "Patient",
        "id": "5ff77161-3cd0-8d97-11d8-e66ff0cf32d5",
        "meta": {
          "profile": [
            "http://hl7.org/fhir/us/core/StructureDefinition/us-core-patient"
          ]
        },
        "identifier": [
          {
            "system": "urn:oid:1.2.840.113619.21.1.139060385287897942.2.1.1.1",
            "value": "1573378351254050"
          },
          {
            "system": "urn:oid:1.2.840.113619.21.1.139060385287897942.2.1.1.2",
            "value": "138102",
            "assigner": {
              "display": "GE EMR-CPS PatientId"
            }
          },
          {
            "system": "urn:oid:1.2.840.113619.21.1.139060385287897942.2.1.1",
            "value": "K109839",
            "assigner": {
              "display": "GE EMR-CPS PatientMRN"
            }
          }
        ],
        "name": [
          {
            "use": "official",
            "family": "Patient5",
            "given": [
              "Sample"
            ]
          }
        ],
        "birthDate": "1991-05-01",
        "deceasedBoolean": false,
        "gender": "female",
        "extension": [
          {
            "url": "http://hl7.org/fhir/us/core/StructureDefinition/us-core-race",
            "extension": [
              {
                "url": "ombCategory",
                "valueCoding": {
                  "code": "2054-5",
                  "system": "urn:oid:2.16.840.1.113883.6.238",
                  "display": "Black or African American"
                }
              },
              {
                "url": "text",
                "valueString": "Black or African American"
              }
            ]
          },
          {
            "url": "http://hl7.org/fhir/us/core/StructureDefinition/us-core-ethnicity",
            "extension": [
              {
                "url": "ombCategory",
                "valueCoding": {
                  "code": "2186-5",
                  "system": "urn:oid:2.16.840.1.113883.6.238",
                  "display": "Not Hispanic or Latino"
                }
              },
              {
                "url": "text",
                "valueString": "Not Hispanic or Latino"
              }
            ]
          }
        ],
        "address": [
          {
            "line": [
              "5 Sample Street",
              "apt 2"
            ],
            "city": "Chicago",
            "state": "IL",
            "postalCode": "60653"
          }
        ],
        "telecom": [
          {
            "system": "phone",
            "value": "3129998888",
            "use": "mobile"
          }
        ],
        "communication": [
          {
            "language": {
              "coding": [
                {
                  "system": "urn:ietf:bcp:47",
                  "code": "en",
                  "display": "English"
                }
              ]
            },
            "preferred": true
          }
        ]
      },
      "request": {
        "method": "PUT",
        "url": "Patient/5ff77161-3cd0-8d97-11d8-e66ff0cf32d5"
      }
    },
    {
      "fullUrl": "urn:uuid:a1424e23-93fd-eaf3-059d-3a285f9e0431",
      "resource": {
        "resourceType": "MedicationAdministration",
        "id": "a1424e23-93fd-eaf3-059d-3a285f9e0431",
        "identifier": [
          {
            "system": "urn:oid:1.2.840.113619.21.1.139060385287897942.9",
            "value": "MedicationAdministration/1903785952151790",
            "assigner": {
              "display": "31913-41995-12761042 API Resource Identifier"
            }
          },
          {
            "system": "UNK",
            "value": "1903785952151790",
            "assigner": {
              "display": "Unknown"
            }
          }
        ],
        "status": "in-progress",
        "effectivePeriod": {
          "start": "2020-04-29T13:25:00-05:00",
          "end": "2020-04-29T13:25:00-05:00"
        },
        "dosage": {
          "route": {
            "coding": [
              {
                "code": "C28161",
                "system": "2.16.840.1.113883.3.26.1.1",
                "display": "INTRAMUSCULAR"
              }
            ],
            "text": "INTRAMUSCULAR"
          },
          "dose": {
            "value": 150,
            "unit": "mg"
          }
        },
        "subject": {
          "reference": "Patient/5ff77161-3cd0-8d97-11d8-e66ff0cf32d5"
        },
        "medicationReference": {
          "reference": "Medication/e49e6e03-01e6-ed72-1be5-b5c80197826c"
        }
      },
      "request": {
        "method": "PUT",
        "url": "MedicationAdministration/a1424e23-93fd-eaf3-059d-3a285f9e0431"
      }
    },
    {
      "fullUrl": "urn:uuid:e49e6e03-01e6-ed72-1be5-b5c80197826c",
      "resource": {
        "resourceType": "Medication",
        "id": "e49e6e03-01e6-ed72-1be5-b5c80197826c",
        "code": {
          "coding": [
            {
              "code": "1000128",
              "system": "http://www.nlm.nih.gov/research/umls/rxnorm",
              "display": "MEDROXYPROGESTERONE ACETATE"
            },
            {
              "code": "6131",
              "system": "2.16.840.1.113883.6.253"
            },
            {
              "code": "25150035101820",
              "system": "2.16.840.1.113883.6.68"
            },
            {
              "code": "27085",
              "system": "1.2.840.113619.21.100.12.998"
            },
            {
              "code": "11655",
              "system": "1.2.840.113619.21.100.12.999"
            },
            {
              "code": "00009074635",
              "system": "2.16.840.1.113883.6.69"
            }
          ],
          "text": "DEPO-PROVERA (MEDROXYPROGESTERONE ACETATE) 150 MG/ML SUSP"
        }
      },
      "request": {
        "method": "PUT",
        "url": "Medication/e49e6e03-01e6-ed72-1be5-b5c80197826c"
      }
    },
    {
      "fullUrl": "urn:uuid:f2cca9cf-9552-67b6-286a-ec0ddbb88d91",
      "resource": {
        "resourceType": "MedicationAdministration",
        "id": "f2cca9cf-9552-67b6-286a-ec0ddbb88d91",
        "identifier": [
          {
            "system": "urn:oid:1.2.840.113619.21.1.139060385287897942.9",
            "value": "MedicationAdministration/1903785450126810",
            "assigner": {
              "display": "31913-41995-12761042 API Resource Identifier"
            }
          },
          {
            "system": "UNK",
            "value": "1903785450126810",
            "assigner": {
              "display": "Unknown"
            }
          }
        ],
        "status": "in-progress",
        "effectivePeriod": {
          "start": "2020-04-29T13:17:00-05:00",
          "end": "2020-04-29T13:17:00-05:00"
        },
        "dosage": {
          "route": {
            "coding": [
              {
                "code": "C28161",
                "system": "2.16.840.1.113883.3.26.1.1",
                "display": "INTRAMUSCULAR"
              }
            ],
            "text": "INTRAMUSCULAR"
          },
          "dose": {
            "value": 250,
            "unit": "mg"
          }
        },
        "subject": {
          "reference": "Patient/5ff77161-3cd0-8d97-11d8-e66ff0cf32d5"
        },
        "medicationReference": {
          "reference": "Medication/ed9eef1e-30d2-4ca6-5799-9cabdcc38fa9"
        }
      },
      "request": {
        "method": "PUT",
        "url": "MedicationAdministration/f2cca9cf-9552-67b6-286a-ec0ddbb88d91"
      }
    },
    {
      "fullUrl": "urn:uuid:ed9eef1e-30d2-4ca6-5799-9cabdcc38fa9",
      "resource": {
        "resourceType": "Medication",
        "id": "ed9eef1e-30d2-4ca6-5799-9cabdcc38fa9",
        "code": {
          "coding": [
            {
              "code": "309092",
              "system": "http://www.nlm.nih.gov/research/umls/rxnorm",
              "display": "CEFTRIAXONE SODIUM"
            },
            {
              "code": "25900",
              "system": "2.16.840.1.113883.6.253"
            },
            {
              "code": "02300090102105",
              "system": "2.16.840.1.113883.6.68"
            },
            {
              "code": "2880",
              "system": "1.2.840.113619.21.100.12.998"
            },
            {
              "code": "8229",
              "system": "1.2.840.113619.21.100.12.999"
            },
            {
              "code": "00143985925",
              "system": "2.16.840.1.113883.6.69"
            }
          ],
          "text": "(CEFTRIAXONE SODIUM) 250 MG SOLR"
        }
      },
      "request": {
        "method": "PUT",
        "url": "Medication/ed9eef1e-30d2-4ca6-5799-9cabdcc38fa9"
      }
    },
    {
      "fullUrl": "urn:uuid:4a059527-4acd-8577-fd6b-dd7e5104cb00",
      "resource": {
        "resourceType": "MedicationStatement",
        "id": "4a059527-4acd-8577-fd6b-dd7e5104cb00",
        "identifier": [
          {
            "system": "urn:oid:1.2.840.113619.21.1.139060385287897942.9",
            "value": "MedicationStatement/1903781334979840",
            "assigner": {
              "display": " API Resource Identifier"
            }
          }
        ],
        "status": "active",
        "effectivePeriod": {
          "start": "2020-04-29T00:00:00-05:00"
        },
        "subject": {
          "reference": "Patient/5ff77161-3cd0-8d97-11d8-e66ff0cf32d5"
        },
        "medicationReference": {
          "reference": "Medication/ba3aa59f-5214-1e22-d315-090264adf985"
        }
      },
      "request": {
        "method": "PUT",
        "url": "MedicationStatement/4a059527-4acd-8577-fd6b-dd7e5104cb00"
      }
    },
    {
      "fullUrl": "urn:uuid:ba3aa59f-5214-1e22-d315-090264adf985",
      "resource": {
        "resourceType": "Medication",
        "id": "ba3aa59f-5214-1e22-d315-090264adf985",
        "code": {
          "coding": [
            {
              "code": "1000128",
              "system": "http://www.nlm.nih.gov/research/umls/rxnorm",
              "display": "MEDROXYPROGESTERONE ACETATE"
            },
            {
              "code": "6131",
              "system": "2.16.840.1.113883.6.253"
            },
            {
              "code": "25150035101820",
              "system": "2.16.840.1.113883.6.68"
            },
            {
              "code": "27085",
              "system": "1.2.840.113619.21.100.12.998"
            },
            {
              "code": "11655",
              "system": "1.2.840.113619.21.100.12.999"
            },
            {
              "code": "00009074635",
              "system": "2.16.840.1.113883.6.69"
            }
          ],
          "text": "DEPO-PROVERA (MEDROXYPROGESTERONE ACETATE) 150 MG/ML SUSP"
        }
      },
      "request": {
        "method": "PUT",
        "url": "Medication/ba3aa59f-5214-1e22-d315-090264adf985"
      }
    },
    {
      "fullUrl": "urn:uuid:e39a3cb8-65e2-6f47-77cc-3fdbe73cd531",
      "resource": {
        "resourceType": "MedicationRequest",
        "id": "e39a3cb8-65e2-6f47-77cc-3fdbe73cd531",
        "identifier": [
          {
            "system": "urn:oid:1.2.840.113619.21.1.139060385287897942.9",
            "value": "MedicationOrder/1903781334979900",
            "assigner": {
              "display": " API Resource Identifier"
            }
          },
          {
            "system": "UNK",
            "value": "5F786518A53645DD8E4287D99AA948CF",
            "assigner": {
              "display": "Unknown"
            }
          }
        ],
        "status": "completed",
        "intent": "order",
        "authoredOn": "2020-04-29T12:10:56.007-05:00",
        "dispenseRequest": {
          "numberOfRepeatsAllowed": 2
        },
        "subject": {
          "reference": "Patient/5ff77161-3cd0-8d97-11d8-e66ff0cf32d5"
        },
        "medicationReference": {
          "reference": "Medication/ba3aa59f-5214-1e22-d315-090264adf985"
        },
        "requester": {
          "reference": "Practitioner/8ed57322-ace2-52ab-fc67-a15e99c4854f"
        }
      },
      "request": {
        "method": "PUT",
        "url": "MedicationRequest/e39a3cb8-65e2-6f47-77cc-3fdbe73cd531"
      }
    },
    {
      "fullUrl": "urn:uuid:8ed57322-ace2-52ab-fc67-a15e99c4854f",
      "resource": {
        "resourceType": "Practitioner",
        "id": "8ed57322-ace2-52ab-fc67-a15e99c4854f",
        "meta": {
          "profile": [
            "http://hl7.org/fhir/us/core/StructureDefinition/us-core-practitioner"
          ]
        },
        "identifier": [
          {
            "system": "urn:oid:1.2.840.113619.21.1.139060385287897942.2.2",
            "value": "1702388393708070",
            "assigner": {
              "display": " Providers by PVID"
            }
          },
          {
            "system": "urn:oid:1.2.840.113619.21.1.139060385287897942.2.1",
            "value": "972",
            "assigner": {
              "display": " Providers by DoctorFacility"
            }
          },
          {
            "system": "http://hl7.org/fhir/sid/us-npi",
            "value": "1437242385",
            "assigner": {
              "display": "US National Provider Identifiers"
            }
          },
          {
            "system": "urn:oid:2.16.840.1.113883.4.2",
            "value": "363197647",
            "assigner": {
              "display": "Federal Tax Identifier"
            }
          }
        ],
        "name": [
          {
            "family": "Cox-Batson",
            "given": [
              "Stephanie"
            ]
          }
        ],
        "address": [
          {
            "line": [
              "Winfield Moody",
              "1276 N. Clybourn"
            ],
            "city": "Chicago",
            "state": "IL",
            "postalCode": "60610"
          }
        ],
        "telecom": [
          {
            "system": "phone",
            "value": "3123371073",
            "use": "work"
          },
          {
            "system": "phone",
            "value": "3123377616",
            "use": "mobile"
          }
        ]
      },
      "request": {
        "method": "PUT",
        "url": "Practitioner/8ed57322-ace2-52ab-fc67-a15e99c4854f"
      }
    },
    {
      "fullUrl": "urn:uuid:8840b582-2f04-010d-d90a-d2e537191ed0",
      "resource": {
        "resourceType": "MedicationStatement",
        "id": "8840b582-2f04-010d-d90a-d2e537191ed0",
        "identifier": [
          {
            "system": "urn:oid:1.2.840.113619.21.1.139060385287897942.9",
            "value": "MedicationStatement/1903781112971500",
            "assigner": {
              "display": " API Resource Identifier"
            }
          }
        ],
        "status": "active",
        "effectivePeriod": {
          "start": "2020-04-29T00:00:00-05:00"
        },
        "subject": {
          "reference": "Patient/5ff77161-3cd0-8d97-11d8-e66ff0cf32d5"
        },
        "medicationReference": {
          "reference": "Medication/080f6a96-def3-492a-8a1e-fdc39118cb3a"
        }
      },
      "request": {
        "method": "PUT",
        "url": "MedicationStatement/8840b582-2f04-010d-d90a-d2e537191ed0"
      }
    },
    {
      "fullUrl": "urn:uuid:080f6a96-def3-492a-8a1e-fdc39118cb3a",
      "resource": {
        "resourceType": "Medication",
        "id": "080f6a96-def3-492a-8a1e-fdc39118cb3a",
        "code": {
          "coding": [
            {
              "code": "309092",
              "system": "http://www.nlm.nih.gov/research/umls/rxnorm",
              "display": "CEFTRIAXONE SODIUM"
            },
            {
              "code": "25900",
              "system": "2.16.840.1.113883.6.253"
            },
            {
              "code": "02300090102105",
              "system": "2.16.840.1.113883.6.68"
            },
            {
              "code": "2880",
              "system": "1.2.840.113619.21.100.12.998"
            },
            {
              "code": "8229",
              "system": "1.2.840.113619.21.100.12.999"
            },
            {
              "code": "00143985925",
              "system": "2.16.840.1.113883.6.69"
            }
          ],
          "text": "(CEFTRIAXONE SODIUM) 250 MG SOLR"
        }
      },
      "request": {
        "method": "PUT",
        "url": "Medication/080f6a96-def3-492a-8a1e-fdc39118cb3a"
      }
    },
    {
      "fullUrl": "urn:uuid:48cab327-0194-e9a6-8364-7901623ccc50",
      "resource": {
        "resourceType": "MedicationRequest",
        "id": "48cab327-0194-e9a6-8364-7901623ccc50",
        "identifier": [
          {
            "system": "urn:oid:1.2.840.113619.21.1.139060385287897942.9",
            "value": "MedicationOrder/1903781112971560",
            "assigner": {
              "display": " API Resource Identifier"
            }
          },
          {
            "system": "UNK",
            "value": "D42B54CA37AA4FF6AE25C0A4DE00A91C",
            "assigner": {
              "display": "Unknown"
            }
          }
        ],
        "status": "completed",
        "intent": "order",
        "authoredOn": "2020-04-29T12:07:52.190-05:00",
        "dispenseRequest": {
          "numberOfRepeatsAllowed": 0
        },
        "subject": {
          "reference": "Patient/5ff77161-3cd0-8d97-11d8-e66ff0cf32d5"
        },
        "medicationReference": {
          "reference": "Medication/080f6a96-def3-492a-8a1e-fdc39118cb3a"
        },
        "requester": {
          "reference": "Practitioner/8ed57322-ace2-52ab-fc67-a15e99c4854f"
        }
      },
      "request": {
        "method": "PUT",
        "url": "MedicationRequest/48cab327-0194-e9a6-8364-7901623ccc50"
      }
    },
    {
      "fullUrl": "urn:uuid:7cc480c3-6ce6-0ca9-594a-4749c267ff7c",
      "resource": {
        "resourceType": "MedicationStatement",
        "id": "7cc480c3-6ce6-0ca9-594a-4749c267ff7c",
        "identifier": [
          {
            "system": "urn:oid:1.2.840.113619.21.1.139060385287897942.9",
            "value": "MedicationStatement/1903780940963900",
            "assigner": {
              "display": " API Resource Identifier"
            }
          }
        ],
        "status": "active",
        "effectivePeriod": {
          "start": "2020-04-29T00:00:00-05:00"
        },
        "subject": {
          "reference": "Patient/5ff77161-3cd0-8d97-11d8-e66ff0cf32d5"
        },
        "medicationReference": {
          "reference": "Medication/c47ea420-9613-70c9-2a20-db72e7926bc6"
        }
      },
      "request": {
        "method": "PUT",
        "url": "MedicationStatement/7cc480c3-6ce6-0ca9-594a-4749c267ff7c"
      }
    },
    {
      "fullUrl": "urn:uuid:c47ea420-9613-70c9-2a20-db72e7926bc6",
      "resource": {
        "resourceType": "Medication",
        "id": "c47ea420-9613-70c9-2a20-db72e7926bc6",
        "code": {
          "coding": [
            {
              "code": "212446",
              "system": "http://www.nlm.nih.gov/research/umls/rxnorm",
              "display": "AZITHROMYCIN"
            },
            {
              "code": "50590",
              "system": "2.16.840.1.113883.6.253"
            },
            {
              "code": "03400010000320",
              "system": "2.16.840.1.113883.6.68"
            },
            {
              "code": "5799",
              "system": "1.2.840.113619.21.100.12.998"
            },
            {
              "code": "1723",
              "system": "1.2.840.113619.21.100.12.999"
            },
            {
              "code": "00069306030",
              "system": "2.16.840.1.113883.6.69"
            }
          ],
          "text": "ZITHROMAX (AZITHROMYCIN) 250 MG TABS"
        }
      },
      "request": {
        "method": "PUT",
        "url": "Medication/c47ea420-9613-70c9-2a20-db72e7926bc6"
      }
    },
    {
      "fullUrl": "urn:uuid:54ce2e05-7405-0645-0742-7002954de469",
      "resource": {
        "resourceType": "MedicationRequest",
        "id": "54ce2e05-7405-0645-0742-7002954de469",
        "identifier": [
          {
            "system": "urn:oid:1.2.840.113619.21.1.139060385287897942.9",
            "value": "MedicationOrder/1903781112971490",
            "assigner": {
              "display": " API Resource Identifier"
            }
          },
          {
            "system": "UNK",
            "value": "3AA0527590AD4A01B5765DDC2A1B31BB",
            "assigner": {
              "display": "Unknown"
            }
          }
        ],
        "status": "completed",
        "intent": "order",
        "authoredOn": "2020-04-29T12:05:51.693-05:00",
        "dispenseRequest": {
          "numberOfRepeatsAllowed": 0
        },
        "subject": {
          "reference": "Patient/5ff77161-3cd0-8d97-11d8-e66ff0cf32d5"
        },
        "medicationReference": {
          "reference": "Medication/c47ea420-9613-70c9-2a20-db72e7926bc6"
        },
        "requester": {
          "reference": "Practitioner/8ed57322-ace2-52ab-fc67-a15e99c4854f"
        }
      },
      "request": {
        "method": "PUT",
        "url": "MedicationRequest/54ce2e05-7405-0645-0742-7002954de469"
      }
    },
    {
      "fullUrl": "urn:uuid:38708f05-523c-f3cd-6dd8-1150a522b2cd",
      "resource": {
        "resourceType": "MedicationStatement",
        "id": "38708f05-523c-f3cd-6dd8-1150a522b2cd",
        "identifier": [
          {
            "system": "urn:oid:1.2.840.113619.21.1.139060385287897942.9",
            "value": "MedicationStatement/1894896435101880",
            "assigner": {
              "display": " API Resource Identifier"
            }
          }
        ],
        "status": "active",
        "dosage": [
          {
            "doseAndRate": [
              {
                "doseQuantity": {
                  "value": 1,
                  "unit": "{Tablet}"
                }
              }
            ]
          }
        ],
        "subject": {
          "reference": "Patient/5ff77161-3cd0-8d97-11d8-e66ff0cf32d5"
        },
        "medicationReference": {
          "reference": "Medication/f5b4fbe7-ce19-3dc5-e4e3-ba24e01d1d0e"
        }
      },
      "request": {
        "method": "PUT",
        "url": "MedicationStatement/38708f05-523c-f3cd-6dd8-1150a522b2cd"
      }
    },
    {
      "fullUrl": "urn:uuid:f5b4fbe7-ce19-3dc5-e4e3-ba24e01d1d0e",
      "resource": {
        "resourceType": "Medication",
        "id": "f5b4fbe7-ce19-3dc5-e4e3-ba24e01d1d0e",
        "code": {
          "coding": [
            {
              "code": "863664",
              "system": "http://www.nlm.nih.gov/research/umls/rxnorm",
              "display": "OXYBUTYNIN CHLORIDE"
            },
            {
              "code": "15987",
              "system": "2.16.840.1.113883.6.253"
            },
            {
              "code": "54100045200330",
              "system": "2.16.840.1.113883.6.68"
            },
            {
              "code": "944",
              "system": "1.2.840.113619.21.100.12.998"
            },
            {
              "code": "2297",
              "system": "1.2.840.113619.21.100.12.999"
            },
            {
              "code": "00603497521",
              "system": "2.16.840.1.113883.6.69"
            }
          ],
          "text": "(OXYBUTYNIN CHLORIDE) 5 MG TABS"
        }
      },
      "request": {
        "method": "PUT",
        "url": "Medication/f5b4fbe7-ce19-3dc5-e4e3-ba24e01d1d0e"
      }
    },
    {
      "fullUrl": "urn:uuid:efd4a2f8-7fb8-f19d-29fe-76ded8531d64",
      "resource": {
        "resourceType": "MedicationRequest",
        "id": "efd4a2f8-7fb8-f19d-29fe-76ded8531d64",
        "identifier": [
          {
            "system": "urn:oid:1.2.840.113619.21.1.139060385287897942.9",
            "value": "MedicationOrder/1894896435101920",
            "assigner": {
              "display": " API Resource Identifier"
            }
          },
          {
            "system": "UNK",
            "value": "AB53A4F516B94DB8A84DF526BA6D2EA7",
            "assigner": {
              "display": "Unknown"
            }
          }
        ],
        "status": "completed",
        "intent": "order",
        "authoredOn": "2020-01-17T16:10:54.393-06:00",
        "dispenseRequest": {
          "numberOfRepeatsAllowed": 1
        },
        "subject": {
          "reference": "Patient/5ff77161-3cd0-8d97-11d8-e66ff0cf32d5"
        },
        "medicationReference": {
          "reference": "Medication/f5b4fbe7-ce19-3dc5-e4e3-ba24e01d1d0e"
        },
        "requester": {
          "reference": "Practitioner/e3e84c67-0650-fd9e-087e-a55f8fa3efa5"
        }
      },
      "request": {
        "method": "PUT",
        "url": "MedicationRequest/efd4a2f8-7fb8-f19d-29fe-76ded8531d64"
      }
    },
    {
      "fullUrl": "urn:uuid:e3e84c67-0650-fd9e-087e-a55f8fa3efa5",
      "resource": {
        "resourceType": "Practitioner",
        "id": "e3e84c67-0650-fd9e-087e-a55f8fa3efa5",
        "meta": {
          "profile": [
            "http://hl7.org/fhir/us/core/StructureDefinition/us-core-practitioner"
          ]
        },
        "identifier": [
          {
            "system": "urn:oid:1.2.840.113619.21.1.139060385287897942.2.2",
            "value": "1842791384243070",
            "assigner": {
              "display": " Providers by PVID"
            }
          },
          {
            "system": "urn:oid:1.2.840.113619.21.1.139060385287897942.2.1",
            "value": "1659",
            "assigner": {
              "display": " Providers by DoctorFacility"
            }
          },
          {
            "system": "http://hl7.org/fhir/sid/us-npi",
            "value": "1558864561",
            "assigner": {
              "display": "US National Provider Identifiers"
            }
          },
          {
            "system": "urn:oid:2.16.840.1.113883.4.2",
            "value": "363197647",
            "assigner": {
              "display": "Federal Tax Identifier"
            }
          }
        ],
        "name": [
          {
            "family": "Tran",
            "given": [
              "Cynthia"
            ]
          }
        ],
        "address": [
          {
            "line": [
              "Winfield Moody",
              "1276 N. Clybourn"
            ],
            "city": "Chicago",
            "state": "IL",
            "postalCode": "60610"
          }
        ],
        "telecom": [
          {
            "system": "phone",
            "value": "3123371073",
            "use": "work"
          },
          {
            "system": "phone",
            "value": "3123377616",
            "use": "mobile"
          }
        ]
      },
      "request": {
        "method": "PUT",
        "url": "Practitioner/e3e84c67-0650-fd9e-087e-a55f8fa3efa5"
      }
    },
    {
      "fullUrl": "urn:uuid:8d97698f-e27a-2be6-3de5-8663bca5d34b",
      "resource": {
        "resourceType": "MedicationStatement",
        "id": "8d97698f-e27a-2be6-3de5-8663bca5d34b",
        "identifier": [
          {
            "system": "urn:oid:1.2.840.113619.21.1.139060385287897942.9",
            "value": "MedicationStatement/1894896386097800",
            "assigner": {
              "display": " API Resource Identifier"
            }
          }
        ],
        "status": "active",
        "dosage": [
          {
            "doseAndRate": [
              {
                "doseQuantity": {
                  "value": 1,
                  "unit": "{Tablet}"
                }
              }
            ]
          }
        ],
        "subject": {
          "reference": "Patient/5ff77161-3cd0-8d97-11d8-e66ff0cf32d5"
        },
        "medicationReference": {
          "reference": "Medication/3bec1c5d-529a-e0fd-7a26-cb7a47a19fc3"
        }
      },
      "request": {
        "method": "PUT",
        "url": "MedicationStatement/8d97698f-e27a-2be6-3de5-8663bca5d34b"
      }
    },
    {
      "fullUrl": "urn:uuid:3bec1c5d-529a-e0fd-7a26-cb7a47a19fc3",
      "resource": {
        "resourceType": "Medication",
        "id": "3bec1c5d-529a-e0fd-7a26-cb7a47a19fc3",
        "code": {
          "coding": [
            {
              "code": "1243415",
              "system": "http://www.nlm.nih.gov/research/umls/rxnorm",
              "display": "CALCIUM CARBONATE-VITAMIN D"
            },
            {
              "code": "56844",
              "system": "2.16.840.1.113883.6.253"
            },
            {
              "code": "79109902630345",
              "system": "2.16.840.1.113883.6.68"
            },
            {
              "code": "4601",
              "system": "1.2.840.113619.21.100.12.998"
            },
            {
              "code": "9983",
              "system": "1.2.840.113619.21.100.12.999"
            },
            {
              "code": "10267155107",
              "system": "2.16.840.1.113883.6.69"
            }
          ],
          "text": "OSCAL 500/200 D-3 (CALCIUM CARBONATE-VITAMIN D) 500-200 MG-UNIT TABS"
        }
      },
      "request": {
        "method": "PUT",
        "url": "Medication/3bec1c5d-529a-e0fd-7a26-cb7a47a19fc3"
      }
    },
    {
      "fullUrl": "urn:uuid:875cfce6-f24d-8145-078d-fab8d470f179",
      "resource": {
        "resourceType": "MedicationRequest",
        "id": "875cfce6-f24d-8145-078d-fab8d470f179",
        "identifier": [
          {
            "system": "urn:oid:1.2.840.113619.21.1.139060385287897942.9",
            "value": "MedicationOrder/1894896386097840",
            "assigner": {
              "display": " API Resource Identifier"
            }
          },
          {
            "system": "UNK",
            "value": "E83836362A554E11920518C5DE1D013C",
            "assigner": {
              "display": "Unknown"
            }
          }
        ],
        "status": "completed",
        "intent": "order",
        "authoredOn": "2020-01-17T16:07:53.137-06:00",
        "dispenseRequest": {
          "numberOfRepeatsAllowed": 8
        },
        "subject": {
          "reference": "Patient/5ff77161-3cd0-8d97-11d8-e66ff0cf32d5"
        },
        "medicationReference": {
          "reference": "Medication/3bec1c5d-529a-e0fd-7a26-cb7a47a19fc3"
        },
        "requester": {
          "reference": "Practitioner/e3e84c67-0650-fd9e-087e-a55f8fa3efa5"
        }
      },
      "request": {
        "method": "PUT",
        "url": "MedicationRequest/875cfce6-f24d-8145-078d-fab8d470f179"
      }
    },
    {
      "fullUrl": "urn:uuid:3c5ae914-3e32-6fb1-aee3-74f48fcdfeb4",
      "resource": {
        "resourceType": "MedicationStatement",
        "id": "3c5ae914-3e32-6fb1-aee3-74f48fcdfeb4",
        "identifier": [
          {
            "system": "urn:oid:1.2.840.113619.21.1.139060385287897942.9",
            "value": "MedicationStatement/1894896386097750",
            "assigner": {
              "display": " API Resource Identifier"
            }
          }
        ],
        "status": "active",
        "effectivePeriod": {
          "start": "2020-01-17T00:00:00-06:00"
        },
        "subject": {
          "reference": "Patient/5ff77161-3cd0-8d97-11d8-e66ff0cf32d5"
        },
        "medicationReference": {
          "reference": "Medication/ba3aa59f-5214-1e22-d315-090264adf985"
        }
      },
      "request": {
        "method": "PUT",
        "url": "MedicationStatement/3c5ae914-3e32-6fb1-aee3-74f48fcdfeb4"
      }
    },
    {
      "fullUrl": "urn:uuid:280adebd-5bbd-5587-5463-5d743c08921a",
      "resource": {
        "resourceType": "MedicationRequest",
        "id": "280adebd-5bbd-5587-5463-5d743c08921a",
        "identifier": [
          {
            "system": "urn:oid:1.2.840.113619.21.1.139060385287897942.9",
            "value": "MedicationOrder/1894896386097790",
            "assigner": {
              "display": " API Resource Identifier"
            }
          },
          {
            "system": "UNK",
            "value": "2D200354C177475396E3F943AB3D2DA6",
            "assigner": {
              "display": "Unknown"
            }
          }
        ],
        "status": "completed",
        "intent": "order",
        "authoredOn": "2020-01-17T16:07:52.790-06:00",
        "dispenseRequest": {
          "numberOfRepeatsAllowed": 5
        },
        "subject": {
          "reference": "Patient/5ff77161-3cd0-8d97-11d8-e66ff0cf32d5"
        },
        "medicationReference": {
          "reference": "Medication/ba3aa59f-5214-1e22-d315-090264adf985"
        },
        "requester": {
          "reference": "Practitioner/e3e84c67-0650-fd9e-087e-a55f8fa3efa5"
        }
      },
      "request": {
        "method": "PUT",
        "url": "MedicationRequest/280adebd-5bbd-5587-5463-5d743c08921a"
      }
    },
    {
      "fullUrl": "urn:uuid:23fd6e10-f6a1-3df7-c64e-5a44a2a5919b",
      "resource": {
        "resourceType": "MedicationStatement",
        "id": "23fd6e10-f6a1-3df7-c64e-5a44a2a5919b",
        "identifier": [
          {
            "system": "urn:oid:1.2.840.113619.21.1.139060385287897942.9",
            "value": "MedicationStatement/1877253987358340",
            "assigner": {
              "display": " API Resource Identifier"
            }
          }
        ],
        "status": "active",
        "effectivePeriod": {
          "start": "2019-06-27T00:00:00-05:00"
        },
        "subject": {
          "reference": "Patient/5ff77161-3cd0-8d97-11d8-e66ff0cf32d5"
        },
        "medicationReference": {
          "reference": "Medication/ba3aa59f-5214-1e22-d315-090264adf985"
        }
      },
      "request": {
        "method": "PUT",
        "url": "MedicationStatement/23fd6e10-f6a1-3df7-c64e-5a44a2a5919b"
      }
    },
    {
      "fullUrl": "urn:uuid:a4af3807-1865-f5ec-32da-3c41308a8da9",
      "resource": {
        "resourceType": "MedicationRequest",
        "id": "a4af3807-1865-f5ec-32da-3c41308a8da9",
        "identifier": [
          {
            "system": "urn:oid:1.2.840.113619.21.1.139060385287897942.9",
            "value": "MedicationOrder/1877253987358400",
            "assigner": {
              "display": " API Resource Identifier"
            }
          },
          {
            "system": "UNK",
            "value": "94DADD9DBE0D4D8F9EE558B580522BF1",
            "assigner": {
              "display": "Unknown"
            }
          }
        ],
        "status": "completed",
        "intent": "order",
        "authoredOn": "2019-06-27T11:27:57.463-05:00",
        "dispenseRequest": {
          "numberOfRepeatsAllowed": 3
        },
        "subject": {
          "reference": "Patient/5ff77161-3cd0-8d97-11d8-e66ff0cf32d5"
        },
        "medicationReference": {
          "reference": "Medication/ba3aa59f-5214-1e22-d315-090264adf985"
        },
        "requester": {
          "reference": "Practitioner/560c63e7-1c77-3ed8-750c-c3983fef5832"
        }
      },
      "request": {
        "method": "PUT",
        "url": "MedicationRequest/a4af3807-1865-f5ec-32da-3c41308a8da9"
      }
    },
    {
      "fullUrl": "urn:uuid:560c63e7-1c77-3ed8-750c-c3983fef5832",
      "resource": {
        "resourceType": "Practitioner",
        "id": "560c63e7-1c77-3ed8-750c-c3983fef5832",
        "meta": {
          "profile": [
            "http://hl7.org/fhir/us/core/StructureDefinition/us-core-practitioner"
          ]
        },
        "identifier": [
          {
            "system": "urn:oid:1.2.840.113619.21.1.139060385287897942.2.2",
            "value": "1857039357279400",
            "assigner": {
              "display": " Providers by PVID"
            }
          },
          {
            "system": "urn:oid:1.2.840.113619.21.1.139060385287897942.2.1",
            "value": "1723",
            "assigner": {
              "display": " Providers by DoctorFacility"
            }
          },
          {
            "system": "http://hl7.org/fhir/sid/us-npi",
            "value": "1689636904",
            "assigner": {
              "display": "US National Provider Identifiers"
            }
          },
          {
            "system": "urn:oid:2.16.840.1.113883.4.2",
            "value": "363197647",
            "assigner": {
              "display": "Federal Tax Identifier"
            }
          }
        ],
        "name": [
          {
            "family": "Oldham",
            "given": [
              "Lisa"
            ]
          }
        ],
        "address": [
          {
            "line": [
              "Winfield Moody",
              "1276 N. Clybourn"
            ],
            "city": "Chicago",
            "state": "IL",
            "postalCode": "60610"
          }
        ],
        "telecom": [
          {
            "system": "phone",
            "value": "3123371073",
            "use": "work"
          },
          {
            "system": "phone",
            "value": "3123377616",
            "use": "mobile"
          }
        ]
      },
      "request": {
        "method": "PUT",
        "url": "Practitioner/560c63e7-1c77-3ed8-750c-c3983fef5832"
      }
    },
    {
      "fullUrl": "urn:uuid:9256d877-ab91-63d5-d2ae-7eed0b79a24a",
      "resource": {
        "resourceType": "MedicationStatement",
        "id": "9256d877-ab91-63d5-d2ae-7eed0b79a24a",
        "identifier": [
          {
            "system": "urn:oid:1.2.840.113619.21.1.139060385287897942.9",
            "value": "MedicationStatement/1845029155338310",
            "assigner": {
              "display": " API Resource Identifier"
            }
          }
        ],
        "status": "active",
        "dosage": [
          {
            "doseAndRate": [
              {
                "doseQuantity": {
                  "value": 1,
                  "unit": "{Tablet}"
                }
              }
            ]
          }
        ],
        "subject": {
          "reference": "Patient/5ff77161-3cd0-8d97-11d8-e66ff0cf32d5"
        },
        "medicationReference": {
          "reference": "Medication/c5a76688-87c4-83a5-58be-9f3ed8d9ef70"
        }
      },
      "request": {
        "method": "PUT",
        "url": "MedicationStatement/9256d877-ab91-63d5-d2ae-7eed0b79a24a"
      }
    },
    {
      "fullUrl": "urn:uuid:c5a76688-87c4-83a5-58be-9f3ed8d9ef70",
      "resource": {
        "resourceType": "Medication",
        "id": "c5a76688-87c4-83a5-58be-9f3ed8d9ef70",
        "code": {
          "coding": [
            {
              "code": "174914",
              "system": "2.16.840.1.113883.6.253",
              "display": "MULTI-VITAMIN DAILY (MULTIPLE VITAMIN) TABS"
            },
            {
              "code": "78200000000300",
              "system": "2.16.840.1.113883.6.68"
            },
            {
              "code": "3377",
              "system": "1.2.840.113619.21.100.12.998"
            },
            {
              "code": "81094",
              "system": "1.2.840.113619.21.100.12.999"
            },
            {
              "code": "37864074399",
              "system": "2.16.840.1.113883.6.69"
            }
          ],
          "text": "MULTI-VITAMIN DAILY (MULTIPLE VITAMIN) TABS"
        }
      },
      "request": {
        "method": "PUT",
        "url": "Medication/c5a76688-87c4-83a5-58be-9f3ed8d9ef70"
      }
    },
    {
      "fullUrl": "urn:uuid:3994acc4-1877-46e5-b48c-32016dcbbd41",
      "resource": {
        "resourceType": "MedicationRequest",
        "id": "3994acc4-1877-46e5-b48c-32016dcbbd41",
        "identifier": [
          {
            "system": "urn:oid:1.2.840.113619.21.1.139060385287897942.9",
            "value": "MedicationOrder/1845029155338350",
            "assigner": {
              "display": " API Resource Identifier"
            }
          },
          {
            "system": "UNK",
            "value": "8C76AE8DAFBB42A5B0479CB0E2DC346C",
            "assigner": {
              "display": "Unknown"
            }
          }
        ],
        "status": "completed",
        "intent": "order",
        "authoredOn": "2018-06-19T12:06:49.700-05:00",
        "dispenseRequest": {
          "numberOfRepeatsAllowed": 3
        },
        "subject": {
          "reference": "Patient/5ff77161-3cd0-8d97-11d8-e66ff0cf32d5"
        },
        "medicationReference": {
          "reference": "Medication/c5a76688-87c4-83a5-58be-9f3ed8d9ef70"
        },
        "requester": {
          "reference": "Practitioner/aa207019-ddee-8e22-544c-c36fd25bf29a"
        }
      },
      "request": {
        "method": "PUT",
        "url": "MedicationRequest/3994acc4-1877-46e5-b48c-32016dcbbd41"
      }
    },
    {
      "fullUrl": "urn:uuid:aa207019-ddee-8e22-544c-c36fd25bf29a",
      "resource": {
        "resourceType": "Practitioner",
        "id": "aa207019-ddee-8e22-544c-c36fd25bf29a",
        "meta": {
          "profile": [
            "http://hl7.org/fhir/us/core/StructureDefinition/us-core-practitioner"
          ]
        },
        "identifier": [
          {
            "system": "urn:oid:1.2.840.113619.21.1.139060385287897942.2.2",
            "value": "1836837048637630",
            "assigner": {
              "display": " Providers by PVID"
            }
          },
          {
            "system": "urn:oid:1.2.840.113619.21.1.139060385287897942.2.1",
            "value": "1640",
            "assigner": {
              "display": " Providers by DoctorFacility"
            }
          },
          {
            "system": "http://hl7.org/fhir/sid/us-npi",
            "value": "1649422700",
            "assigner": {
              "display": "US National Provider Identifiers"
            }
          },
          {
            "system": "urn:oid:2.16.840.1.113883.4.2",
            "value": "363197647",
            "assigner": {
              "display": "Federal Tax Identifier"
            }
          }
        ],
        "name": [
          {
            "family": "Bender",
            "given": [
              "Runez"
            ]
          }
        ],
        "address": [
          {
            "line": [
              "Winfield Moody",
              "1276 N. Clybourn"
            ],
            "city": "Chicago",
            "state": "IL",
            "postalCode": "60610"
          }
        ],
        "telecom": [
          {
            "system": "phone",
            "value": "3123371076",
            "use": "work"
          },
          {
            "system": "phone",
            "value": "3123377616",
            "use": "mobile"
          }
        ]
      },
      "request": {
        "method": "PUT",
        "url": "Practitioner/aa207019-ddee-8e22-544c-c36fd25bf29a"
      }
    },
    {
      "fullUrl": "urn:uuid:f76c7f83-209d-c8bd-0f43-d966efb8fd0a",
      "resource": {
        "resourceType": "MedicationStatement",
        "id": "f76c7f83-209d-c8bd-0f43-d966efb8fd0a",
        "identifier": [
          {
            "system": "urn:oid:1.2.840.113619.21.1.139060385287897942.9",
            "value": "MedicationStatement/1845028967319960",
            "assigner": {
              "display": " API Resource Identifier"
            }
          }
        ],
        "status": "active",
        "effectivePeriod": {
          "start": "2018-06-19T00:00:00-05:00"
        },
        "subject": {
          "reference": "Patient/5ff77161-3cd0-8d97-11d8-e66ff0cf32d5"
        },
        "medicationReference": {
          "reference": "Medication/1b592b26-48af-414a-00b2-7165be1d5773"
        }
      },
      "request": {
        "method": "PUT",
        "url": "MedicationStatement/f76c7f83-209d-c8bd-0f43-d966efb8fd0a"
      }
    },
    {
      "fullUrl": "urn:uuid:1b592b26-48af-414a-00b2-7165be1d5773",
      "resource": {
        "resourceType": "Medication",
        "id": "1b592b26-48af-414a-00b2-7165be1d5773",
        "code": {
          "coding": [
            {
              "code": "428485",
              "system": "http://www.nlm.nih.gov/research/umls/rxnorm",
              "display": "CALCIUM CARBONATE-VITAMIN D"
            },
            {
              "code": "668292",
              "system": "http://www.nlm.nih.gov/research/umls/rxnorm",
              "display": "calcium carbonate 600 MG / cholecalciferol 0.01 MG Oral Tablet"
            },
            {
              "code": "89522",
              "system": "2.16.840.1.113883.6.253"
            },
            {
              "code": "79109902630368",
              "system": "2.16.840.1.113883.6.68"
            },
            {
              "code": "4601",
              "system": "1.2.840.113619.21.100.12.998"
            },
            {
              "code": "21434",
              "system": "1.2.840.113619.21.100.12.999"
            },
            {
              "code": "00904323352",
              "system": "2.16.840.1.113883.6.69"
            }
          ],
          "text": "(CALCIUM CARBONATE-VITAMIN D) 600-400 MG-UNIT TABS"
        }
      },
      "request": {
        "method": "PUT",
        "url": "Medication/1b592b26-48af-414a-00b2-7165be1d5773"
      }
    },
    {
      "fullUrl": "urn:uuid:6ec1a20e-19eb-1d5f-acbf-5bdff1a2abc4",
      "resource": {
        "resourceType": "MedicationRequest",
        "id": "6ec1a20e-19eb-1d5f-acbf-5bdff1a2abc4",
        "identifier": [
          {
            "system": "urn:oid:1.2.840.113619.21.1.139060385287897942.9",
            "value": "MedicationOrder/1845029155338300",
            "assigner": {
              "display": " API Resource Identifier"
            }
          },
          {
            "system": "UNK",
            "value": "83EA1D6658C545F5B7B084024B55B96B",
            "assigner": {
              "display": "Unknown"
            }
          }
        ],
        "status": "completed",
        "intent": "order",
        "authoredOn": "2018-06-19T12:06:49.337-05:00",
        "dispenseRequest": {
          "numberOfRepeatsAllowed": 3
        },
        "subject": {
          "reference": "Patient/5ff77161-3cd0-8d97-11d8-e66ff0cf32d5"
        },
        "medicationReference": {
          "reference": "Medication/1b592b26-48af-414a-00b2-7165be1d5773"
        },
        "requester": {
          "reference": "Practitioner/aa207019-ddee-8e22-544c-c36fd25bf29a"
        }
      },
      "request": {
        "method": "PUT",
        "url": "MedicationRequest/6ec1a20e-19eb-1d5f-acbf-5bdff1a2abc4"
      }
    },
    {
      "fullUrl": "urn:uuid:dd6c118c-b8be-294c-5b4a-a0634a3383b8",
      "resource": {
        "resourceType": "MedicationStatement",
        "id": "dd6c118c-b8be-294c-5b4a-a0634a3383b8",
        "identifier": [
          {
            "system": "urn:oid:1.2.840.113619.21.1.139060385287897942.9",
            "value": "MedicationStatement/1845027552136190",
            "assigner": {
              "display": " API Resource Identifier"
            }
          }
        ],
        "status": "active",
        "effectivePeriod": {
          "start": "2018-06-19T00:00:00-05:00"
        },
        "subject": {
          "reference": "Patient/5ff77161-3cd0-8d97-11d8-e66ff0cf32d5"
        },
        "medicationReference": {
          "reference": "Medication/ba3aa59f-5214-1e22-d315-090264adf985"
        }
      },
      "request": {
        "method": "PUT",
        "url": "MedicationStatement/dd6c118c-b8be-294c-5b4a-a0634a3383b8"
      }
    },
    {
      "fullUrl": "urn:uuid:36c3eef2-7b28-0e36-0a86-7e7ded5cf6eb",
      "resource": {
        "resourceType": "MedicationRequest",
        "id": "36c3eef2-7b28-0e36-0a86-7e7ded5cf6eb",
        "identifier": [
          {
            "system": "urn:oid:1.2.840.113619.21.1.139060385287897942.9",
            "value": "MedicationOrder/1845027552136230",
            "assigner": {
              "display": " API Resource Identifier"
            }
          },
          {
            "system": "UNK",
            "value": "8A86A7DC3D2E4244A80DD891095EF63E",
            "assigner": {
              "display": "Unknown"
            }
          }
        ],
        "status": "completed",
        "intent": "order",
        "authoredOn": "2018-06-19T11:41:50.200-05:00",
        "dispenseRequest": {
          "numberOfRepeatsAllowed": 0
        },
        "subject": {
          "reference": "Patient/5ff77161-3cd0-8d97-11d8-e66ff0cf32d5"
        },
        "medicationReference": {
          "reference": "Medication/ba3aa59f-5214-1e22-d315-090264adf985"
        },
        "requester": {
          "reference": "Practitioner/aa207019-ddee-8e22-544c-c36fd25bf29a"
        }
      },
      "request": {
        "method": "PUT",
        "url": "MedicationRequest/36c3eef2-7b28-0e36-0a86-7e7ded5cf6eb"
      }
    },
    {
      "fullUrl": "urn:uuid:cdc58b9a-5266-c15b-f64a-d5ec336c66b1",
      "resource": {
        "resourceType": "MedicationStatement",
        "id": "cdc58b9a-5266-c15b-f64a-d5ec336c66b1",
        "identifier": [
          {
            "system": "urn:oid:1.2.840.113619.21.1.139060385287897942.9",
            "value": "MedicationStatement/1834756745678210",
            "assigner": {
              "display": " API Resource Identifier"
            }
          }
        ],
        "status": "active",
        "effectivePeriod": {
          "start": "2018-02-20T00:00:00-06:00"
        },
        "subject": {
          "reference": "Patient/5ff77161-3cd0-8d97-11d8-e66ff0cf32d5"
        },
        "medicationReference": {
          "reference": "Medication/d3353ad0-874a-cdc6-69d7-a7a6e7b6a61f"
        }
      },
      "request": {
        "method": "PUT",
        "url": "MedicationStatement/cdc58b9a-5266-c15b-f64a-d5ec336c66b1"
      }
    },
    {
      "fullUrl": "urn:uuid:d3353ad0-874a-cdc6-69d7-a7a6e7b6a61f",
      "resource": {
        "resourceType": "Medication",
        "id": "d3353ad0-874a-cdc6-69d7-a7a6e7b6a61f",
        "code": {
          "coding": [
            {
              "code": "857004",
              "system": "http://www.nlm.nih.gov/research/umls/rxnorm",
              "display": "HYDROCODONE-ACETAMINOPHEN"
            },
            {
              "code": "69456",
              "system": "2.16.840.1.113883.6.253"
            },
            {
              "code": "65991702100356",
              "system": "2.16.840.1.113883.6.68"
            },
            {
              "code": "2452",
              "system": "1.2.840.113619.21.100.12.998"
            },
            {
              "code": "67",
              "system": "1.2.840.113619.21.100.12.999"
            },
            {
              "code": "00023600201",
              "system": "2.16.840.1.113883.6.69"
            }
          ],
          "text": "NORCO (HYDROCODONE-ACETAMINOPHEN) 5-325 MG TABS"
        }
      },
      "request": {
        "method": "PUT",
        "url": "Medication/d3353ad0-874a-cdc6-69d7-a7a6e7b6a61f"
      }
    },
    {
      "fullUrl": "urn:uuid:a2553a60-8739-238a-f10d-a6f85abd6121",
      "resource": {
        "resourceType": "MedicationRequest",
        "id": "a2553a60-8739-238a-f10d-a6f85abd6121",
        "identifier": [
          {
            "system": "urn:oid:1.2.840.113619.21.1.139060385287897942.9",
            "value": "MedicationOrder/1834756745678240",
            "assigner": {
              "display": " API Resource Identifier"
            }
          }
        ],
        "status": "completed",
        "intent": "order",
        "authoredOn": "2018-02-20T14:39:33.590-06:00",
        "dispenseRequest": {
          "numberOfRepeatsAllowed": 0
        },
        "subject": {
          "reference": "Patient/5ff77161-3cd0-8d97-11d8-e66ff0cf32d5"
        },
        "medicationReference": {
          "reference": "Medication/d3353ad0-874a-cdc6-69d7-a7a6e7b6a61f"
        },
        "requester": {
          "reference": "Practitioner/23293cfd-1320-6ca5-5430-86a208c250b1"
        }
      },
      "request": {
        "method": "PUT",
        "url": "MedicationRequest/a2553a60-8739-238a-f10d-a6f85abd6121"
      }
    },
    {
      "fullUrl": "urn:uuid:23293cfd-1320-6ca5-5430-86a208c250b1",
      "resource": {
        "resourceType": "Practitioner",
        "id": "23293cfd-1320-6ca5-5430-86a208c250b1",
        "meta": {
          "profile": [
            "http://hl7.org/fhir/us/core/StructureDefinition/us-core-practitioner"
          ]
        },
        "identifier": [
          {
            "system": "urn:oid:1.2.840.113619.21.1.139060385287897942.2.2",
            "value": "1738854670411640",
            "assigner": {
              "display": " Providers by PVID"
            }
          },
          {
            "system": "urn:oid:1.2.840.113619.21.1.139060385287897942.2.1",
            "value": "1131",
            "assigner": {
              "display": " Providers by DoctorFacility"
            }
          },
          {
            "system": "http://hl7.org/fhir/sid/us-npi",
            "value": "1790125870",
            "assigner": {
              "display": "US National Provider Identifiers"
            }
          },
          {
            "system": "urn:oid:2.16.840.1.113883.4.2",
            "value": "363197647",
            "assigner": {
              "display": "Federal Tax Identifier"
            }
          }
        ],
        "name": [
          {
            "family": "Catana Macovei",
            "given": [
              "Alina"
            ]
          }
        ],
        "address": [
          {
            "line": [
              "North Kostner Health Center",
              "1520 North Kostner Avenue"
            ],
            "city": "Chicago",
            "state": "IL",
            "postalCode": "60653"
          }
        ],
        "telecom": [
          {
            "system": "phone",
            "value": "31221680208043",
            "use": "work"
          },
          {
            "system": "phone",
            "value": "3122524876",
            "use": "mobile"
          }
        ]
      },
      "request": {
        "method": "PUT",
        "url": "Practitioner/23293cfd-1320-6ca5-5430-86a208c250b1"
      }
    },
    {
      "fullUrl": "urn:uuid:8947b11e-72c3-09bc-0d32-4dd2caad6ab5",
      "resource": {
        "resourceType": "MedicationStatement",
        "id": "8947b11e-72c3-09bc-0d32-4dd2caad6ab5",
        "identifier": [
          {
            "system": "urn:oid:1.2.840.113619.21.1.139060385287897942.9",
            "value": "MedicationStatement/1811069596116100",
            "assigner": {
              "display": " API Resource Identifier"
            }
          }
        ],
        "status": "active",
        "effectivePeriod": {
          "start": "2017-05-22T00:00:00-05:00"
        },
        "subject": {
          "reference": "Patient/5ff77161-3cd0-8d97-11d8-e66ff0cf32d5"
        },
        "medicationReference": {
          "reference": "Medication/3bec1c5d-529a-e0fd-7a26-cb7a47a19fc3"
        }
      },
      "request": {
        "method": "PUT",
        "url": "MedicationStatement/8947b11e-72c3-09bc-0d32-4dd2caad6ab5"
      }
    },
    {
      "fullUrl": "urn:uuid:fded7a68-99fc-8973-4ed1-89f91ffaf0ed",
      "resource": {
        "resourceType": "MedicationRequest",
        "id": "fded7a68-99fc-8973-4ed1-89f91ffaf0ed",
        "identifier": [
          {
            "system": "urn:oid:1.2.840.113619.21.1.139060385287897942.9",
            "value": "MedicationOrder/1811069596116130",
            "assigner": {
              "display": " API Resource Identifier"
            }
          }
        ],
        "status": "completed",
        "intent": "order",
        "authoredOn": "2018-06-01T20:00:57.520-05:00",
        "dispenseRequest": {
          "numberOfRepeatsAllowed": 12
        },
        "subject": {
          "reference": "Patient/5ff77161-3cd0-8d97-11d8-e66ff0cf32d5"
        },
        "medicationReference": {
          "reference": "Medication/3bec1c5d-529a-e0fd-7a26-cb7a47a19fc3"
        },
        "requester": {
          "reference": "Practitioner/305f03c8-1877-f7f2-f90e-d776426ee97c"
        }
      },
      "request": {
        "method": "PUT",
        "url": "MedicationRequest/fded7a68-99fc-8973-4ed1-89f91ffaf0ed"
      }
    },
    {
      "fullUrl": "urn:uuid:305f03c8-1877-f7f2-f90e-d776426ee97c",
      "resource": {
        "resourceType": "Practitioner",
        "id": "305f03c8-1877-f7f2-f90e-d776426ee97c",
        "meta": {
          "profile": [
            "http://hl7.org/fhir/us/core/StructureDefinition/us-core-practitioner"
          ]
        },
        "identifier": [
          {
            "system": "urn:oid:1.2.840.113619.21.1.139060385287897942.2.2",
            "value": "1645445284000250",
            "assigner": {
              "display": " Providers by PVID"
            }
          },
          {
            "system": "urn:oid:1.2.840.113619.21.1.139060385287897942.2.1",
            "value": "25",
            "assigner": {
              "display": " Providers by DoctorFacility"
            }
          },
          {
            "system": "http://hl7.org/fhir/sid/us-npi",
            "value": "1033319181",
            "assigner": {
              "display": "US National Provider Identifiers"
            }
          },
          {
            "system": "urn:oid:2.16.840.1.113883.4.2",
            "value": "343197647",
            "assigner": {
              "display": "Federal Tax Identifier"
            }
          }
        ],
        "name": [
          {
            "family": "Galloway",
            "given": [
              "Suzanne"
            ]
          }
        ],
        "address": [
          {
            "line": [
              "Winfield Moody Health Center",
              "1276 N Clybourn"
            ],
            "city": "Chicago",
            "state": "IL",
            "postalCode": "606102089"
          }
        ],
        "telecom": [
          {
            "system": "phone",
            "value": "3123371073",
            "use": "work"
          },
          {
            "system": "phone",
            "value": "3123377460",
            "use": "mobile"
          }
        ]
      },
      "request": {
        "method": "PUT",
        "url": "Practitioner/305f03c8-1877-f7f2-f90e-d776426ee97c"
      }
    },
    {
      "fullUrl": "urn:uuid:b802c47b-4945-b6da-c79b-5df6160a5601",
      "resource": {
        "resourceType": "MedicationStatement",
        "id": "b802c47b-4945-b6da-c79b-5df6160a5601",
        "identifier": [
          {
            "system": "urn:oid:1.2.840.113619.21.1.139060385287897942.9",
            "value": "MedicationStatement/1811069596116060",
            "assigner": {
              "display": " API Resource Identifier"
            }
          }
        ],
        "status": "active",
        "effectivePeriod": {
          "start": "2017-05-22T00:00:00-05:00"
        },
        "subject": {
          "reference": "Patient/5ff77161-3cd0-8d97-11d8-e66ff0cf32d5"
        },
        "medicationReference": {
          "reference": "Medication/ba3aa59f-5214-1e22-d315-090264adf985"
        }
      },
      "request": {
        "method": "PUT",
        "url": "MedicationStatement/b802c47b-4945-b6da-c79b-5df6160a5601"
      }
    },
    {
      "fullUrl": "urn:uuid:10ae8f27-c2da-534d-9d66-7d1f38c430d4",
      "resource": {
        "resourceType": "MedicationRequest",
        "id": "10ae8f27-c2da-534d-9d66-7d1f38c430d4",
        "identifier": [
          {
            "system": "urn:oid:1.2.840.113619.21.1.139060385287897942.9",
            "value": "MedicationOrder/1811069596116090",
            "assigner": {
              "display": " API Resource Identifier"
            }
          }
        ],
        "status": "completed",
        "intent": "order",
        "authoredOn": "2017-05-22T10:54:48.470-05:00",
        "dispenseRequest": {
          "numberOfRepeatsAllowed": 3
        },
        "subject": {
          "reference": "Patient/5ff77161-3cd0-8d97-11d8-e66ff0cf32d5"
        },
        "medicationReference": {
          "reference": "Medication/ba3aa59f-5214-1e22-d315-090264adf985"
        },
        "requester": {
          "reference": "Practitioner/305f03c8-1877-f7f2-f90e-d776426ee97c"
        }
      },
      "request": {
        "method": "PUT",
        "url": "MedicationRequest/10ae8f27-c2da-534d-9d66-7d1f38c430d4"
      }
    },
    {
      "fullUrl": "urn:uuid:7c23cb42-c65d-e621-68d6-ba8c1dfb6b95",
      "resource": {
        "resourceType": "MedicationRequest",
        "id": "7c23cb42-c65d-e621-68d6-ba8c1dfb6b95",
        "identifier": [
          {
            "system": "urn:oid:1.2.840.113619.21.1.139060385287897942.9",
            "value": "MedicationOrder/1833034239923370",
            "assigner": {
              "display": " API Resource Identifier"
            }
          }
        ],
        "status": "completed",
        "intent": "order",
        "authoredOn": "2018-01-31T17:08:48.867-06:00",
        "dispenseRequest": {
          "numberOfRepeatsAllowed": 3
        },
        "subject": {
          "reference": "Patient/5ff77161-3cd0-8d97-11d8-e66ff0cf32d5"
        },
        "medicationReference": {
          "reference": "Medication/ba3aa59f-5214-1e22-d315-090264adf985"
        },
        "requester": {
          "reference": "Practitioner/736b4270-8732-7f46-fd74-d30aa98a28a0"
        }
      },
      "request": {
        "method": "PUT",
        "url": "MedicationRequest/7c23cb42-c65d-e621-68d6-ba8c1dfb6b95"
      }
    },
    {
      "fullUrl": "urn:uuid:736b4270-8732-7f46-fd74-d30aa98a28a0",
      "resource": {
        "resourceType": "Practitioner",
        "id": "736b4270-8732-7f46-fd74-d30aa98a28a0",
        "meta": {
          "profile": [
            "http://hl7.org/fhir/us/core/StructureDefinition/us-core-practitioner"
          ]
        },
        "identifier": [
          {
            "system": "urn:oid:1.2.840.113619.21.1.139060385287897942.2.2",
            "value": "1812543899030740",
            "assigner": {
              "display": " Providers by PVID"
            }
          },
          {
            "system": "urn:oid:1.2.840.113619.21.1.139060385287897942.2.1",
            "value": "1508",
            "assigner": {
              "display": " Providers by DoctorFacility"
            }
          },
          {
            "system": "http://hl7.org/fhir/sid/us-npi",
            "value": "1982982096",
            "assigner": {
              "display": "US National Provider Identifiers"
            }
          },
          {
            "system": "urn:oid:2.16.840.1.113883.4.2",
            "value": "363197647",
            "assigner": {
              "display": "Federal Tax Identifier"
            }
          }
        ],
        "name": [
          {
            "family": "Sood",
            "given": [
              "Kanika"
            ]
          }
        ],
        "address": [
          {
            "line": [
              "Winfield Moody",
              "1276 N. Clybourn"
            ],
            "city": "Chicago",
            "state": "IL",
            "postalCode": "60610"
          }
        ],
        "telecom": [
          {
            "system": "phone",
            "value": "3123371073",
            "use": "work"
          },
          {
            "system": "phone",
            "value": "3123377616",
            "use": "mobile"
          }
        ]
      },
      "request": {
        "method": "PUT",
        "url": "Practitioner/736b4270-8732-7f46-fd74-d30aa98a28a0"
      }
    },
    {
      "fullUrl": "urn:uuid:a396da77-f5ba-e360-f743-ed3996d2d290",
      "resource": {
        "resourceType": "MedicationStatement",
        "id": "a396da77-f5ba-e360-f743-ed3996d2d290",
        "identifier": [
          {
            "system": "urn:oid:1.2.840.113619.21.1.139060385287897942.9",
            "value": "MedicationStatement/1790171865377630",
            "assigner": {
              "display": " API Resource Identifier"
            }
          }
        ],
        "status": "active",
        "effectivePeriod": {
          "start": "2016-09-22T00:00:00-05:00"
        },
        "subject": {
          "reference": "Patient/5ff77161-3cd0-8d97-11d8-e66ff0cf32d5"
        },
        "medicationReference": {
          "reference": "Medication/b52f909b-3694-ac07-b7e1-67d8ea8925e4"
        }
      },
      "request": {
        "method": "PUT",
        "url": "MedicationStatement/a396da77-f5ba-e360-f743-ed3996d2d290"
      }
    },
    {
      "fullUrl": "urn:uuid:b52f909b-3694-ac07-b7e1-67d8ea8925e4",
      "resource": {
        "resourceType": "Medication",
        "id": "b52f909b-3694-ac07-b7e1-67d8ea8925e4",
        "code": {
          "coding": [
            {
              "code": "1363309",
              "system": "http://www.nlm.nih.gov/research/umls/rxnorm",
              "display": "CHLORPHENIRAMINE MALEATE"
            },
            {
              "code": "4504",
              "system": "2.16.840.1.113883.6.253"
            },
            {
              "code": "41100020150310",
              "system": "2.16.840.1.113883.6.68"
            },
            {
              "code": "294",
              "system": "1.2.840.113619.21.100.12.998"
            },
            {
              "code": "2282",
              "system": "1.2.840.113619.21.100.12.999"
            },
            {
              "code": "54738010301",
              "system": "2.16.840.1.113883.6.69"
            }
          ],
          "text": "(CHLORPHENIRAMINE MALEATE) 4 MG TABS"
        }
      },
      "request": {
        "method": "PUT",
        "url": "Medication/b52f909b-3694-ac07-b7e1-67d8ea8925e4"
      }
    },
    {
      "fullUrl": "urn:uuid:13bfd110-b31f-2640-4902-72d9d9b1e36f",
      "resource": {
        "resourceType": "MedicationRequest",
        "id": "13bfd110-b31f-2640-4902-72d9d9b1e36f",
        "identifier": [
          {
            "system": "urn:oid:1.2.840.113619.21.1.139060385287897942.9",
            "value": "MedicationOrder/1790171865377660",
            "assigner": {
              "display": " API Resource Identifier"
            }
          }
        ],
        "status": "completed",
        "intent": "order",
        "authoredOn": "2016-12-23T09:05:11.370-06:00",
        "dispenseRequest": {
          "numberOfRepeatsAllowed": 0
        },
        "subject": {
          "reference": "Patient/5ff77161-3cd0-8d97-11d8-e66ff0cf32d5"
        },
        "medicationReference": {
          "reference": "Medication/b52f909b-3694-ac07-b7e1-67d8ea8925e4"
        },
        "requester": {
          "reference": "Practitioner/e9ce5156-75ea-2203-faba-08954afc441a"
        }
      },
      "request": {
        "method": "PUT",
        "url": "MedicationRequest/13bfd110-b31f-2640-4902-72d9d9b1e36f"
      }
    },
    {
      "fullUrl": "urn:uuid:e9ce5156-75ea-2203-faba-08954afc441a",
      "resource": {
        "resourceType": "Practitioner",
        "id": "e9ce5156-75ea-2203-faba-08954afc441a",
        "meta": {
          "profile": [
            "http://hl7.org/fhir/us/core/StructureDefinition/us-core-practitioner"
          ]
        },
        "identifier": [
          {
            "system": "urn:oid:1.2.840.113619.21.1.139060385287897942.2.2",
            "value": "1697100898957460",
            "assigner": {
              "display": " Providers by PVID"
            }
          },
          {
            "system": "urn:oid:1.2.840.113619.21.1.139060385287897942.2.1",
            "value": "921",
            "assigner": {
              "display": " Providers by DoctorFacility"
            }
          },
          {
            "system": "http://hl7.org/fhir/sid/us-npi",
            "value": "1336395078",
            "assigner": {
              "display": "US National Provider Identifiers"
            }
          },
          {
            "system": "urn:oid:2.16.840.1.113883.4.2",
            "value": "363197647",
            "assigner": {
              "display": "Federal Tax Identifier"
            }
          }
        ],
        "name": [
          {
            "family": "Herzan-Taylor",
            "given": [
              "Elizabeth"
            ]
          }
        ],
        "address": [
          {
            "line": [
              "Denny Community Health Center",
              "30 W. Chicago"
            ],
            "city": "Chicago",
            "state": "IL",
            "postalCode": "60610"
          }
        ],
        "telecom": [
          {
            "system": "phone",
            "value": "3129263964",
            "use": "work"
          },
          {
            "system": "phone",
            "value": "3129263028",
            "use": "mobile"
          }
        ]
      },
      "request": {
        "method": "PUT",
        "url": "Practitioner/e9ce5156-75ea-2203-faba-08954afc441a"
      }
    },
    {
      "fullUrl": "urn:uuid:3ab04b58-2d22-4714-88be-5457ae907d2b",
      "resource": {
        "resourceType": "MedicationStatement",
        "id": "3ab04b58-2d22-4714-88be-5457ae907d2b",
        "identifier": [
          {
            "system": "urn:oid:1.2.840.113619.21.1.139060385287897942.9",
            "value": "MedicationStatement/1790171865377590",
            "assigner": {
              "display": " API Resource Identifier"
            }
          }
        ],
        "status": "active",
        "effectivePeriod": {
          "start": "2016-09-22T00:00:00-05:00"
        },
        "subject": {
          "reference": "Patient/5ff77161-3cd0-8d97-11d8-e66ff0cf32d5"
        },
        "medicationReference": {
          "reference": "Medication/4234895f-7bb7-5fda-8931-5fa107c24f7b"
        }
      },
      "request": {
        "method": "PUT",
        "url": "MedicationStatement/3ab04b58-2d22-4714-88be-5457ae907d2b"
      }
    },
    {
      "fullUrl": "urn:uuid:4234895f-7bb7-5fda-8931-5fa107c24f7b",
      "resource": {
        "resourceType": "Medication",
        "id": "4234895f-7bb7-5fda-8931-5fa107c24f7b",
        "code": {
          "coding": [
            {
              "code": "1797907",
              "system": "http://www.nlm.nih.gov/research/umls/rxnorm",
              "display": "FLUTICASONE PROPIONATE"
            },
            {
              "code": "100537",
              "system": "2.16.840.1.113883.6.253"
            },
            {
              "code": "42200032301810",
              "system": "2.16.840.1.113883.6.68"
            },
            {
              "code": "24098",
              "system": "1.2.840.113619.21.100.12.998"
            },
            {
              "code": "10110",
              "system": "1.2.840.113619.21.100.12.999"
            },
            {
              "code": "00054327099",
              "system": "2.16.840.1.113883.6.69"
            }
          ],
          "text": "(FLUTICASONE PROPIONATE) 50 MCG/ACT SUSP"
        }
      },
      "request": {
        "method": "PUT",
        "url": "Medication/4234895f-7bb7-5fda-8931-5fa107c24f7b"
      }
    },
    {
      "fullUrl": "urn:uuid:e726a3da-e153-2fe1-b4f7-e7586c8dd0a8",
      "resource": {
        "resourceType": "MedicationRequest",
        "id": "e726a3da-e153-2fe1-b4f7-e7586c8dd0a8",
        "identifier": [
          {
            "system": "urn:oid:1.2.840.113619.21.1.139060385287897942.9",
            "value": "MedicationOrder/1790171865377620",
            "assigner": {
              "display": " API Resource Identifier"
            }
          }
        ],
        "status": "completed",
        "intent": "order",
        "authoredOn": "2016-12-23T09:05:11.370-06:00",
        "dispenseRequest": {
          "numberOfRepeatsAllowed": 1
        },
        "subject": {
          "reference": "Patient/5ff77161-3cd0-8d97-11d8-e66ff0cf32d5"
        },
        "medicationReference": {
          "reference": "Medication/4234895f-7bb7-5fda-8931-5fa107c24f7b"
        },
        "requester": {
          "reference": "Practitioner/e9ce5156-75ea-2203-faba-08954afc441a"
        }
      },
      "request": {
        "method": "PUT",
        "url": "MedicationRequest/e726a3da-e153-2fe1-b4f7-e7586c8dd0a8"
      }
    },
    {
      "fullUrl": "urn:uuid:342e1898-7418-1ab7-c3f8-bfcda1dcb048",
      "resource": {
        "resourceType": "MedicationStatement",
        "id": "342e1898-7418-1ab7-c3f8-bfcda1dcb048",
        "identifier": [
          {
            "system": "urn:oid:1.2.840.113619.21.1.139060385287897942.9",
            "value": "MedicationStatement/1785409241915280",
            "assigner": {
              "display": " API Resource Identifier"
            }
          }
        ],
        "status": "active",
        "effectivePeriod": {
          "start": "2016-07-29T00:00:00-05:00"
        },
        "subject": {
          "reference": "Patient/5ff77161-3cd0-8d97-11d8-e66ff0cf32d5"
        },
        "medicationReference": {
          "reference": "Medication/4b6e3a9d-1261-a1af-fdf0-c1a2253412cc"
        }
      },
      "request": {
        "method": "PUT",
        "url": "MedicationStatement/342e1898-7418-1ab7-c3f8-bfcda1dcb048"
      }
    },
    {
      "fullUrl": "urn:uuid:4b6e3a9d-1261-a1af-fdf0-c1a2253412cc",
      "resource": {
        "resourceType": "Medication",
        "id": "4b6e3a9d-1261-a1af-fdf0-c1a2253412cc",
        "code": {
          "coding": [
            {
              "code": "144181",
              "system": "2.16.840.1.113883.6.253",
              "display": "SE-NATAL 19 (PRENATAL VIT-DSS-FE FUM-FA) 29-1 MG TABS"
            },
            {
              "code": "78512070000330",
              "system": "2.16.840.1.113883.6.68"
            },
            {
              "code": "27794",
              "system": "1.2.840.113619.21.100.12.998"
            },
            {
              "code": "59040",
              "system": "1.2.840.113619.21.100.12.999"
            },
            {
              "code": "13925011601",
              "system": "2.16.840.1.113883.6.69"
            }
          ],
          "text": "SE-NATAL 19 (PRENATAL VIT-DSS-FE FUM-FA) 29-1 MG TABS"
        }
      },
      "request": {
        "method": "PUT",
        "url": "Medication/4b6e3a9d-1261-a1af-fdf0-c1a2253412cc"
      }
    },
    {
      "fullUrl": "urn:uuid:dba8bdd2-8621-e54d-7da4-d9f0dfb92800",
      "resource": {
        "resourceType": "MedicationRequest",
        "id": "dba8bdd2-8621-e54d-7da4-d9f0dfb92800",
        "identifier": [
          {
            "system": "urn:oid:1.2.840.113619.21.1.139060385287897942.9",
            "value": "MedicationOrder/1785409241915310",
            "assigner": {
              "display": " API Resource Identifier"
            }
          }
        ],
        "status": "completed",
        "intent": "order",
        "authoredOn": "2016-12-23T09:05:11.370-06:00",
        "dispenseRequest": {
          "numberOfRepeatsAllowed": 11
        },
        "subject": {
          "reference": "Patient/5ff77161-3cd0-8d97-11d8-e66ff0cf32d5"
        },
        "medicationReference": {
          "reference": "Medication/4b6e3a9d-1261-a1af-fdf0-c1a2253412cc"
        },
        "requester": {
          "reference": "Practitioner/1afe7489-d355-de38-2003-8c003ccaeeba"
        }
      },
      "request": {
        "method": "PUT",
        "url": "MedicationRequest/dba8bdd2-8621-e54d-7da4-d9f0dfb92800"
      }
    },
    {
      "fullUrl": "urn:uuid:1afe7489-d355-de38-2003-8c003ccaeeba",
      "resource": {
        "resourceType": "Practitioner",
        "id": "1afe7489-d355-de38-2003-8c003ccaeeba",
        "meta": {
          "profile": [
            "http://hl7.org/fhir/us/core/StructureDefinition/us-core-practitioner"
          ]
        },
        "identifier": [
          {
            "system": "urn:oid:1.2.840.113619.21.1.139060385287897942.2.2",
            "value": "1757592685652690",
            "assigner": {
              "display": " Providers by PVID"
            }
          },
          {
            "system": "urn:oid:1.2.840.113619.21.1.139060385287897942.2.1",
            "value": "1223",
            "assigner": {
              "display": " Providers by DoctorFacility"
            }
          },
          {
            "system": "http://hl7.org/fhir/sid/us-npi",
            "value": "1285001867",
            "assigner": {
              "display": "US National Provider Identifiers"
            }
          },
          {
            "system": "urn:oid:2.16.840.1.113883.4.2",
            "value": "363197647",
            "assigner": {
              "display": "Federal Tax Identifier"
            }
          }
        ],
        "name": [
          {
            "family": "Gardino",
            "given": [
              "Shauna"
            ]
          }
        ],
        "address": [
          {
            "line": [
              "Winfield Moody Health Center",
              "1276 North Clybourn Avenue"
            ],
            "city": "Chicago",
            "state": "IL",
            "country": "USA",
            "postalCode": "60610"
          }
        ],
        "telecom": [
          {
            "system": "phone",
            "value": "3123371073",
            "use": "work"
          },
          {
            "system": "phone",
            "value": "3123377616",
            "use": "mobile"
          }
        ]
      },
      "request": {
        "method": "PUT",
        "url": "Practitioner/1afe7489-d355-de38-2003-8c003ccaeeba"
      }
    },
    {
      "fullUrl": "urn:uuid:97745d1c-0d34-04e3-02e7-65bc3bf072f9",
      "resource": {
        "resourceType": "Condition",
        "id": "97745d1c-0d34-04e3-02e7-65bc3bf072f9",
        "identifier": [
          {
            "system": "urn:oid:1.2.840.113619.21.1.139060385287897942.9",
            "value": "Condition/1903781258977230",
            "assigner": {
              "display": "31913-41995-12761042 API Resource Identifier"
            }
          }
        ],
        "category": [
          {
            "coding": [
              {
                "code": "problem-item-list",
                "display": "Problem List Item",
                "system": "http://hl7.org/fhir/us/core/ValueSet/us-core-condition-category"
              }
            ]
          }
        ],
        "code": {
          "coding": [
            {
              "code": "240589008",
              "system": "http://snomed.info/sct",
              "display": "Chlamydia trachomatis"
            },
            {
              "code": "A74.9",
              "system": "2.16.840.1.113883.6.90"
            },
            {
              "code": "099.41",
              "system": "2.16.840.1.113883.6.103"
            },
            {
              "code": "ICD-099.41",
              "system": "1.2.840.113619.21.1.139060385287897942.2.1.1.4"
            }
          ],
          "text": "Chlamydia trachomatis"
        },
        "onsetDateTime": "2020-04-29T00:00:00-05:00",
        "subject": {
          "reference": "Patient/5ff77161-3cd0-8d97-11d8-e66ff0cf32d5"
        }
      },
      "request": {
        "method": "PUT",
        "url": "Condition/97745d1c-0d34-04e3-02e7-65bc3bf072f9"
      }
    },
    {
      "fullUrl": "urn:uuid:4a76e0d2-6560-4555-0433-450a2e310366",
      "resource": {
        "resourceType": "Condition",
        "id": "4a76e0d2-6560-4555-0433-450a2e310366",
        "identifier": [
          {
            "system": "urn:oid:1.2.840.113619.21.1.139060385287897942.9",
            "value": "Condition/1903781112971640",
            "assigner": {
              "display": "31913-41995-12761042 API Resource Identifier"
            }
          }
        ],
        "category": [
          {
            "coding": [
              {
                "code": "problem-item-list",
                "display": "Problem List Item",
                "system": "http://hl7.org/fhir/us/core/ValueSet/us-core-condition-category"
              }
            ]
          }
        ],
        "code": {
          "coding": [
            {
              "code": "15628003",
              "system": "http://snomed.info/sct",
              "display": "Gonorrhea"
            },
            {
              "code": "A54.9",
              "system": "2.16.840.1.113883.6.90"
            },
            {
              "code": "098.0",
              "system": "2.16.840.1.113883.6.103"
            },
            {
              "code": "ICD-098.0",
              "system": "1.2.840.113619.21.1.139060385287897942.2.1.1.4"
            }
          ],
          "text": "Gonorrhea"
        },
        "onsetDateTime": "2020-04-29T00:00:00-05:00",
        "subject": {
          "reference": "Patient/5ff77161-3cd0-8d97-11d8-e66ff0cf32d5"
        }
      },
      "request": {
        "method": "PUT",
        "url": "Condition/4a76e0d2-6560-4555-0433-450a2e310366"
      }
    },
    {
      "fullUrl": "urn:uuid:3de37765-e6c2-33eb-a8cd-804b61baea0c",
      "resource": {
        "resourceType": "DiagnosticReport",
        "id": "3de37765-e6c2-33eb-a8cd-804b61baea0c",
        "identifier": [
          {
            "system": "urn:oid:1.2.840.113619.21.1.139060385287897942.9",
            "value": "Observation/1903896961661540",
            "assigner": {
              "display": "31913-41995-12761042 API Resource Identifier"
            }
          }
        ],
        "status": "final",
        "code": {
          "coding": [
            {
              "code": "30954-2",
              "system": "http://loinc.org",
              "display": "RESULTS"
            }
          ]
        },
        "subject": {
          "reference": "Patient/5ff77161-3cd0-8d97-11d8-e66ff0cf32d5"
        },
        "result": [
          {
            "reference": "Observation/bcce8c2b-0c3a-c9dd-f584-36fff1ef4e58"
          },
          {
            "reference": "Observation/5d1a58cd-d1c3-0952-55fb-72c77b309190"
          },
          {
            "reference": "Observation/ed2bf2cd-8da3-7e6d-6c96-31e9edb6f231"
          }
        ]
      },
      "request": {
        "method": "PUT",
        "url": "DiagnosticReport/3de37765-e6c2-33eb-a8cd-804b61baea0c"
      }
    },
    {
      "fullUrl": "urn:uuid:bcce8c2b-0c3a-c9dd-f584-36fff1ef4e58",
      "resource": {
        "resourceType": "Observation",
        "id": "bcce8c2b-0c3a-c9dd-f584-36fff1ef4e58",
        "meta": {
          "profile": [
            "http://hl7.org/fhir/us/ecr/StructureDefinition/us-ph-lab-result-observation"
          ]
        },
        "identifier": [
          {
            "system": "urn:oid:1.2.840.113619.21.1.139060385287897942.9",
            "value": "Observation/1903896961661540",
            "assigner": {
              "display": "31913-41995-12761042 API Resource Identifier"
            }
          }
        ],
        "category": [
          {
            "coding": [
              {
                "system": "http://terminology.hl7.org/CodeSystem/observation-category",
                "code": "laboratory"
              }
            ]
          }
        ],
        "status": "final",
        "code": {
          "coding": [
            {
              "code": "5291-0",
              "system": "http://loinc.org",
              "display": "Reagin Ab [Units/volume] in Serum by VDRL"
            },
            {
              "code": "308",
              "system": "1.2.840.113619.21.100.12.1053.139060385287897942",
              "display": "RPR"
            }
          ],
          "text": "rapid plasma reagin antibody, serum"
        },
        "effectiveDateTime": "2020-04-29T12:57:00-05:00",
        "valueString": "Non Reactive",
        "referenceRange": [
          {
            "text": "Non Reactive"
          }
        ],
        "subject": {
          "reference": "Patient/5ff77161-3cd0-8d97-11d8-e66ff0cf32d5"
        }
      },
      "request": {
        "method": "PUT",
        "url": "Observation/bcce8c2b-0c3a-c9dd-f584-36fff1ef4e58"
      }
    },
    {
      "fullUrl": "urn:uuid:5d1a58cd-d1c3-0952-55fb-72c77b309190",
      "resource": {
        "resourceType": "Observation",
        "id": "5d1a58cd-d1c3-0952-55fb-72c77b309190",
        "meta": {
          "profile": [
            "http://hl7.org/fhir/us/ecr/StructureDefinition/us-ph-lab-result-observation"
          ]
        },
        "identifier": [
          {
            "system": "urn:oid:1.2.840.113619.21.1.139060385287897942.9",
            "value": "Observation/1903896961661500",
            "assigner": {
              "display": "31913-41995-12761042 API Resource Identifier"
            }
          }
        ],
        "category": [
          {
            "coding": [
              {
                "system": "http://terminology.hl7.org/CodeSystem/observation-category",
                "code": "laboratory"
              }
            ]
          }
        ],
        "status": "final",
        "code": {
          "coding": [
            {
              "code": "24111-7",
              "system": "http://loinc.org",
              "display": "Neisseria gonorrhoeae DNA [Presence] in Unspecified specimen by NAA with probe detection"
            },
            {
              "code": "2719",
              "system": "1.2.840.113619.21.100.12.1053.139060385287897942",
              "display": "GC DNA PROBE"
            }
          ],
          "text": "Neisseria gonorrhoeae DNA probe"
        },
        "effectiveDateTime": "2020-04-29T12:57:00-05:00",
        "valueString": "Negative",
        "referenceRange": [
          {
            "text": "Negative"
          }
        ],
        "subject": {
          "reference": "Patient/5ff77161-3cd0-8d97-11d8-e66ff0cf32d5"
        }
      },
      "request": {
        "method": "PUT",
        "url": "Observation/5d1a58cd-d1c3-0952-55fb-72c77b309190"
      }
    },
    {
      "fullUrl": "urn:uuid:ed2bf2cd-8da3-7e6d-6c96-31e9edb6f231",
      "resource": {
        "resourceType": "Observation",
        "id": "ed2bf2cd-8da3-7e6d-6c96-31e9edb6f231",
        "meta": {
          "profile": [
            "http://hl7.org/fhir/us/ecr/StructureDefinition/us-ph-lab-result-observation"
          ]
        },
        "identifier": [
          {
            "system": "urn:oid:1.2.840.113619.21.1.139060385287897942.9",
            "value": "Observation/1903896961661480",
            "assigner": {
              "display": "31913-41995-12761042 API Resource Identifier"
            }
          }
        ],
        "category": [
          {
            "coding": [
              {
                "system": "http://terminology.hl7.org/CodeSystem/observation-category",
                "code": "laboratory"
              }
            ]
          }
        ],
        "status": "final",
        "code": {
          "coding": [
            {
              "code": "21613-5",
              "system": "http://loinc.org",
              "display": "Chlamydia trachomatis DNA [Presence] in Unspecified specimen by NAA with probe detection"
            },
            {
              "code": "14722",
              "system": "1.2.840.113619.21.100.12.1053.139060385287897942",
              "display": "CHLAMYD DNA"
            }
          ],
          "text": "chlamydia DNA probe"
        },
        "effectiveDateTime": "2020-04-29T12:57:00-05:00",
        "valueString": "Positive",
        "referenceRange": [
          {
            "text": "Negative"
          }
        ],
        "interpretation": [
          {
            "coding": [
              {
                "code": "A",
                "system": "http://terminology.hl7.org/CodeSystem/v3-ObservationInterpretation",
                "display": "Abnormal"
              }
            ],
            "text": "Abnormal"
          }
        ],
        "subject": {
          "reference": "Patient/5ff77161-3cd0-8d97-11d8-e66ff0cf32d5"
        }
      },
      "request": {
        "method": "PUT",
        "url": "Observation/ed2bf2cd-8da3-7e6d-6c96-31e9edb6f231"
      }
    },
    {
      "fullUrl": "urn:uuid:dfb3ba94-f314-9556-a4d1-36574b33d766",
      "resource": {
        "resourceType": "Observation",
        "id": "dfb3ba94-f314-9556-a4d1-36574b33d766",
        "meta": {
          "profile": [
            "http://hl7.org/fhir/StructureDefinition/Observation"
          ]
        },
        "identifier": [
          {
            "system": "urn:oid:1.2.840.113619.21.1.139060385287897942.9",
            "value": "Observation/1903779134857860",
            "assigner": {
              "display": "31913-41995-12761042 API Resource Identifier"
            }
          }
        ],
        "category": [
          {
            "coding": [
              {
                "system": "http://terminology.hl7.org/CodeSystem/observation-category",
                "code": "social-history"
              }
            ]
          }
        ],
        "status": "final",
        "code": {
          "coding": [
            {
              "code": "304549008",
              "system": "http://snomed.info/sct",
              "display": "Giving encouragement to exercise (procedure)"
            },
            {
              "code": "156247",
              "system": "1.2.840.113619.21.100.12.1053.139060385287897942",
              "display": "EXERPRG REF"
            }
          ],
          "text": "Exercise Program Referral"
        },
        "effectiveDateTime": "2020-04-29T11:29:28-05:00",
        "valueString": "T",
        "subject": {
          "reference": "Patient/5ff77161-3cd0-8d97-11d8-e66ff0cf32d5"
        }
      },
      "request": {
        "method": "PUT",
        "url": "Observation/dfb3ba94-f314-9556-a4d1-36574b33d766"
      }
    },
    {
      "fullUrl": "urn:uuid:38d001e9-ac39-6088-3d49-4e9f05dc9f1c",
      "resource": {
        "resourceType": "Observation",
        "id": "38d001e9-ac39-6088-3d49-4e9f05dc9f1c",
        "meta": {
          "profile": [
            "http://hl7.org/fhir/StructureDefinition/Observation"
          ]
        },
        "identifier": [
          {
            "system": "urn:oid:1.2.840.113619.21.1.139060385287897942.9",
            "value": "Observation/1903779134857840",
            "assigner": {
              "display": "31913-41995-12761042 API Resource Identifier"
            }
          }
        ],
        "category": [
          {
            "coding": [
              {
                "system": "http://terminology.hl7.org/CodeSystem/observation-category",
                "code": "social-history"
              }
            ]
          }
        ],
        "status": "final",
        "code": {
          "coding": [
            {
              "code": "156251",
              "system": "1.2.840.113619.21.100.12.1053.139060385287897942",
              "display": "WGTMGMTCOUNS"
            },
            {
              "system": "1.2.840.113619.21.100.12.1053.139060385287897942"
            }
          ],
          "text": "Weight Management Counseling Provided"
        },
        "effectiveDateTime": "2020-04-29T11:29:28-05:00",
        "valueString": "T",
        "subject": {
          "reference": "Patient/5ff77161-3cd0-8d97-11d8-e66ff0cf32d5"
        }
      },
      "request": {
        "method": "PUT",
        "url": "Observation/38d001e9-ac39-6088-3d49-4e9f05dc9f1c"
      }
    },
    {
      "fullUrl": "urn:uuid:5a9eb653-b91e-599d-ca8c-920b09be494f",
      "resource": {
        "resourceType": "Observation",
        "id": "5a9eb653-b91e-599d-ca8c-920b09be494f",
        "meta": {
          "profile": [
            "http://hl7.org/fhir/StructureDefinition/Observation"
          ]
        },
        "identifier": [
          {
            "system": "urn:oid:1.2.840.113619.21.1.139060385287897942.9",
            "value": "Observation/1903779134857820",
            "assigner": {
              "display": "31913-41995-12761042 API Resource Identifier"
            }
          }
        ],
        "category": [
          {
            "coding": [
              {
                "system": "http://terminology.hl7.org/CodeSystem/observation-category",
                "code": "social-history"
              }
            ]
          }
        ],
        "status": "final",
        "code": {
          "coding": [
            {
              "code": "241375",
              "system": "1.2.840.113619.21.100.12.1053.139060385287897942",
              "display": "NUTRITIONIVN"
            },
            {
              "system": "1.2.840.113619.21.100.12.1053.139060385287897942"
            }
          ],
          "text": "Nutrition intervention"
        },
        "effectiveDateTime": "2020-04-29T11:29:28-05:00",
        "valueString": "T",
        "subject": {
          "reference": "Patient/5ff77161-3cd0-8d97-11d8-e66ff0cf32d5"
        }
      },
      "request": {
        "method": "PUT",
        "url": "Observation/5a9eb653-b91e-599d-ca8c-920b09be494f"
      }
    },
    {
      "fullUrl": "urn:uuid:8c06e477-461c-2313-f0a7-7ae0506f2085",
      "resource": {
        "resourceType": "Observation",
        "id": "8c06e477-461c-2313-f0a7-7ae0506f2085",
        "meta": {
          "profile": [
            "http://hl7.org/fhir/StructureDefinition/Observation"
          ]
        },
        "identifier": [
          {
            "system": "urn:oid:1.2.840.113619.21.1.139060385287897942.9",
            "value": "Observation/1903779134857740",
            "assigner": {
              "display": "31913-41995-12761042 API Resource Identifier"
            }
          }
        ],
        "category": [
          {
            "coding": [
              {
                "system": "http://terminology.hl7.org/CodeSystem/observation-category",
                "code": "social-history"
              }
            ]
          }
        ],
        "status": "final",
        "code": {
          "coding": [
            {
              "code": "502889",
              "system": "1.2.840.113619.21.100.12.1053.139060385287897942",
              "display": "ASSMTHLTLTRY"
            },
            {
              "system": "1.2.840.113619.21.100.12.1053.139060385287897942"
            }
          ],
          "text": "assessment of health literacy (NCQA PCMH 2014 Standards, 3C10)"
        },
        "effectiveDateTime": "2020-04-29T11:29:28-05:00",
        "valueString": "Adequate",
        "subject": {
          "reference": "Patient/5ff77161-3cd0-8d97-11d8-e66ff0cf32d5"
        }
      },
      "request": {
        "method": "PUT",
        "url": "Observation/8c06e477-461c-2313-f0a7-7ae0506f2085"
      }
    },
    {
      "fullUrl": "urn:uuid:65d04b97-3a25-4995-45e7-4ff24ece8936",
      "resource": {
        "resourceType": "Observation",
        "id": "65d04b97-3a25-4995-45e7-4ff24ece8936",
        "meta": {
          "profile": [
            "http://hl7.org/fhir/StructureDefinition/Observation"
          ]
        },
        "identifier": [
          {
            "system": "urn:oid:1.2.840.113619.21.1.139060385287897942.9",
            "value": "Observation/1903779118857070",
            "assigner": {
              "display": "31913-41995-12761042 API Resource Identifier"
            }
          }
        ],
        "category": [
          {
            "coding": [
              {
                "system": "http://terminology.hl7.org/CodeSystem/observation-category",
                "code": "social-history"
              }
            ]
          }
        ],
        "status": "final",
        "code": {
          "coding": [
            {
              "code": "418494",
              "system": "1.2.840.113619.21.100.12.1053.139060385287897942",
              "display": "CHANCEPREGN"
            },
            {
              "system": "1.2.840.113619.21.100.12.1053.139060385287897942"
            }
          ],
          "text": "is there any chance that you could be pregnant?"
        },
        "effectiveDateTime": "2020-04-29T11:29:28-05:00",
        "valueString": "No",
        "subject": {
          "reference": "Patient/5ff77161-3cd0-8d97-11d8-e66ff0cf32d5"
        }
      },
      "request": {
        "method": "PUT",
        "url": "Observation/65d04b97-3a25-4995-45e7-4ff24ece8936"
      }
    },
    {
      "fullUrl": "urn:uuid:0d5abcc0-d5ee-2b5b-0ee1-5ed8bbc5c0a1",
      "resource": {
        "resourceType": "Observation",
        "id": "0d5abcc0-d5ee-2b5b-0ee1-5ed8bbc5c0a1",
        "meta": {
          "profile": [
            "http://hl7.org/fhir/StructureDefinition/Observation"
          ]
        },
        "identifier": [
          {
            "system": "urn:oid:1.2.840.113619.21.1.139060385287897942.9",
            "value": "Observation/1903779071853990",
            "assigner": {
              "display": "31913-41995-12761042 API Resource Identifier"
            }
          }
        ],
        "category": [
          {
            "coding": [
              {
                "system": "http://terminology.hl7.org/CodeSystem/observation-category",
                "code": "social-history"
              }
            ]
          }
        ],
        "status": "final",
        "code": {
          "coding": [
            {
              "code": "549318",
              "system": "1.2.840.113619.21.100.12.1053.139060385287897942",
              "display": "VAPE_USE"
            },
            {
              "system": "1.2.840.113619.21.100.12.1053.139060385287897942"
            }
          ],
          "text": "if the patient is using/has used a vaping item, Current, Former, Never Used, Not asked"
        },
        "effectiveDateTime": "2020-04-29T11:29:28-05:00",
        "valueString": "No",
        "subject": {
          "reference": "Patient/5ff77161-3cd0-8d97-11d8-e66ff0cf32d5"
        }
      },
      "request": {
        "method": "PUT",
        "url": "Observation/0d5abcc0-d5ee-2b5b-0ee1-5ed8bbc5c0a1"
      }
    },
    {
      "fullUrl": "urn:uuid:67b85356-621e-e6f8-e0a2-50069734e9d3",
      "resource": {
        "resourceType": "Observation",
        "id": "67b85356-621e-e6f8-e0a2-50069734e9d3",
        "meta": {
          "profile": [
            "http://hl7.org/fhir/StructureDefinition/Observation"
          ]
        },
        "identifier": [
          {
            "system": "urn:oid:1.2.840.113619.21.1.139060385287897942.9",
            "value": "Observation/1903779071853970",
            "assigner": {
              "display": "31913-41995-12761042 API Resource Identifier"
            }
          }
        ],
        "category": [
          {
            "coding": [
              {
                "system": "http://terminology.hl7.org/CodeSystem/observation-category",
                "code": "social-history"
              }
            ]
          }
        ],
        "status": "final",
        "code": {
          "coding": [
            {
              "code": "2200004",
              "system": "1.2.840.113619.21.100.12.1053.139060385287897942",
              "display": "TOBACCO USE"
            },
            {
              "system": "1.2.840.113619.21.100.12.1053.139060385287897942"
            }
          ],
          "text": "tobacco use (cigarettes, cigar, chew, pipe)"
        },
        "effectiveDateTime": "2020-04-29T11:29:28-05:00",
        "valueString": "Currently",
        "subject": {
          "reference": "Patient/5ff77161-3cd0-8d97-11d8-e66ff0cf32d5"
        }
      },
      "request": {
        "method": "PUT",
        "url": "Observation/67b85356-621e-e6f8-e0a2-50069734e9d3"
      }
    },
    {
      "fullUrl": "urn:uuid:e168f919-b390-f3df-3667-6c1a70e71258",
      "resource": {
        "resourceType": "Observation",
        "id": "e168f919-b390-f3df-3667-6c1a70e71258",
        "meta": {
          "profile": [
            "http://hl7.org/fhir/StructureDefinition/Observation"
          ]
        },
        "identifier": [
          {
            "system": "urn:oid:1.2.840.113619.21.1.139060385287897942.9",
            "value": "Observation/1903779071853940",
            "assigner": {
              "display": "31913-41995-12761042 API Resource Identifier"
            }
          }
        ],
        "category": [
          {
            "coding": [
              {
                "system": "http://terminology.hl7.org/CodeSystem/observation-category",
                "code": "social-history"
              }
            ]
          }
        ],
        "status": "final",
        "code": {
          "coding": [
            {
              "code": "72166-2",
              "system": "http://loinc.org",
              "display": "Tobacco smoking status NHIS"
            },
            {
              "code": "11366-2",
              "system": "http://loinc.org",
              "display": "History of tobacco use Narrative"
            },
            {
              "code": "229819007",
              "system": "http://snomed.info/sct",
              "display": "Tobacco use and exposure"
            },
            {
              "code": "300015",
              "system": "1.2.840.113619.21.100.12.1053.139060385287897942",
              "display": "SMOK STATUS"
            }
          ],
          "text": "smoking status"
        },
        "effectiveDateTime": "2020-04-29T11:29:28-05:00",
        "valueCodeableConcept": {
          "coding": [
            {
              "code": "449868002",
              "system": "http://snomed.info/sct",
              "display": "Smokes tobacco daily (finding)"
            },
            {
              "code": "72166-2",
              "system": "http://loinc.org",
              "display": "Tobacco smoking status NHIS"
            }
          ],
          "text": "current every day smoker"
        },
        "subject": {
          "reference": "Patient/5ff77161-3cd0-8d97-11d8-e66ff0cf32d5"
        }
      },
      "request": {
        "method": "PUT",
        "url": "Observation/e168f919-b390-f3df-3667-6c1a70e71258"
      }
    },
    {
      "fullUrl": "urn:uuid:7e5be60c-f4b6-4cca-8f5f-54c56544fd34",
      "resource": {
        "resourceType": "Observation",
        "id": "7e5be60c-f4b6-4cca-8f5f-54c56544fd34",
        "meta": {
          "profile": [
            "http://hl7.org/fhir/StructureDefinition/Observation"
          ]
        },
        "identifier": [
          {
            "system": "urn:oid:1.2.840.113619.21.1.139060385287897942.9",
            "value": "Observation/1903695861281040",
            "assigner": {
              "display": "31913-41995-12761042 API Resource Identifier"
            }
          }
        ],
        "category": [
          {
            "coding": [
              {
                "system": "http://terminology.hl7.org/CodeSystem/observation-category",
                "code": "social-history"
              }
            ]
          }
        ],
        "status": "final",
        "code": {
          "coding": [
            {
              "code": "385140",
              "system": "1.2.840.113619.21.100.12.1053.139060385287897942",
              "display": "LCS15YRTOBHX"
            },
            {
              "system": "1.2.840.113619.21.100.12.1053.139060385287897942"
            }
          ],
          "text": "Lung Cancer Screening - 15 year tobacco use history"
        },
        "effectiveDateTime": "2020-04-28T12:24:17-05:00",
        "valueString": "Yes",
        "subject": {
          "reference": "Patient/5ff77161-3cd0-8d97-11d8-e66ff0cf32d5"
        }
      },
      "request": {
        "method": "PUT",
        "url": "Observation/7e5be60c-f4b6-4cca-8f5f-54c56544fd34"
      }
    },
    {
      "fullUrl": "urn:uuid:c8105af6-b96e-5e7d-68c4-59a9fbf7b717",
      "resource": {
        "resourceType": "Observation",
        "id": "c8105af6-b96e-5e7d-68c4-59a9fbf7b717",
        "meta": {
          "profile": [
            "http://hl7.org/fhir/StructureDefinition/Observation"
          ]
        },
        "identifier": [
          {
            "system": "urn:oid:1.2.840.113619.21.1.139060385287897942.9",
            "value": "Observation/1903620674208050",
            "assigner": {
              "display": "31913-41995-12761042 API Resource Identifier"
            }
          }
        ],
        "category": [
          {
            "coding": [
              {
                "system": "http://terminology.hl7.org/CodeSystem/observation-category",
                "code": "social-history"
              }
            ]
          }
        ],
        "status": "final",
        "code": {
          "coding": [
            {
              "code": "360265",
              "system": "1.2.840.113619.21.100.12.1053.139060385287897942",
              "display": "TIME OF CALL"
            },
            {
              "system": "1.2.840.113619.21.100.12.1053.139060385287897942"
            }
          ],
          "text": "time of call"
        },
        "effectiveDateTime": "2020-04-27T15:31:15-05:00",
        "valueString": "04/27/2020 3:31 PM",
        "subject": {
          "reference": "Patient/5ff77161-3cd0-8d97-11d8-e66ff0cf32d5"
        }
      },
      "request": {
        "method": "PUT",
        "url": "Observation/c8105af6-b96e-5e7d-68c4-59a9fbf7b717"
      }
    }
  ]
}
}