{
  "Status": "OK",
  "FhirResource": {
  "resourceType": "Bundle",
  "type": "batch",
  "entry": [
    {
      "fullUrl": "1906844699671490",
      "resource": {
        "resourceType": "Composition",
        "id": "1906844699671490",
        "meta": {
          "profile": [
            "http://hl7.org/fhir/us/ecr/StructureDefinition/eicr-composition"
          ]
        },
        "identifier": {
          "use": "official",
          "type": {
            "coding": [
              {
                "code": "55751-2",
                "system": "http://loinc.org",
                "display": "Initial Public Health Case Report"
              }
            ]
          }
        },
        "extension": [
          {
            "url": "http://hl7.org/fhir/StructureDefinition/composition-clinicaldocument-versionNumber"
          },
          {
            "url": "https://www.hl7.org/implement/standards/product_brief.cfm?product_id=436",
            "valueString": "2016-12-01"
          }
        ],
        "status": "final",
        "type": {
          "coding": [
            {
              "code": "55751-2",
              "system": "http://loinc.org",
              "display": "Initial Public Health Case Report"
            }
          ]
        },
        "date": "2020-06-03T23:04:59-05:00",
        "title": "Initial Public Health Case Report",
        "confidentiality": "N",
        "event": [
          {
            "period": {
              "start": "2020-06-03T23:04:59-05:00"
            }
          }
        ],
        "section": [
          {
            "id": "0d263350-892d-5e79-1fd5-836928b46866",
            "title": "HISTORY OF PRESENT ILLNESS",
            "text": {
              "status": "generated",
              "div": " ___5___ minutes were spent with this patient and greater than 50% of the time was in consultation., Chlamydia trachomatis - New ·Instructions: please make sure to inform your partners of your diagnosis make sure that your partner is treated to prevent re-infection: F/U in 3 weeks for test of cure: Please use condoms during sexual intercourseno unprotected sex for 1-2 weeks, brief (1-3 elements), Ronnie Reed is a 24 Years Old Male ( DOB 05/20/1995)\" This is a phone conversation in lieu of in-office visit due to the coronavirus emergency.\"went over lab results+ for chlamydia informed need to take an antibioticsand inform partners and refrain from unprotected sex patient with no symptoms , No, No, No, No, Home, Phone, Std screening - New ·Instructions: Results will be back with in 4-5days:Should you need further treatment we will contact you via mail and/or phone: If your results are positive please make sure to inform your partners of your diagnosis make sure that your partner is treated to prevent re-infection: F/U in 3 weeks for test of cure: Please use condoms during sexual intercourse, brief (1-3 elements), Ronnie Reed is a 24 Years Old Male ( DOB 05/20/1995)here for a lab only visit for std testingdoesnt not have any symptoms reports a previous partner told him that she was positive for an STD but would not tell him which one admits to having unprotected sex "
            },
            "code": {
              "coding": [
                {
                  "code": "10164-2",
                  "system": "http://loinc.org",
                  "display": "HISTORY OF PRESENT ILLNESS"
                }
              ]
            },
            "mode": "snapshot"
          },
          {
            "id": "83fd0ab4-3a5d-100e-cfb5-2348ec3d48db",
            "title": "REASON FOR VISIT",
            "text": {
              "status": "generated",
              "div": "lab results , STI/STD testing"
            },
            "code": {
              "coding": [
                {
                  "code": "29299-5",
                  "system": "http://loinc.org",
                  "display": "REASON FOR VISIT"
                }
              ]
            },
            "mode": "snapshot",
            "extension": [
              {
                "url": "http://hl7.org/fhir/cda/ccda/StructureDefinition/2.16.840.1.113883.10.20.22.2.12",
                "valueString": "lab results , STI/STD testing"
              }
            ]
          },
          {
            "id": "5360e434-5d20-1740-8ad3-d7a2a6d0a985",
            "title": "SOCIAL HISTORY",
            "text": {
              "status": "generated",
              "div": "<table border=\"1\" width=\"100%\" xmlns=\"urn:hl7-org:v3\"><thead><tr><th align=\"left\">Date</th><th align=\"left\">Observation</th><th align=\"left\">Value</th><th align=\"left\">Provider</th></tr></thead><tbody><tr ID=\"d58402e13-1.2.840.113619.21.1.139060385287897942.10.1591243499923.284836\"><td align=\"left\">2020/05/12</td><td>social history E&amp;M</td><td>He has pets that include has indoor dog. RONNIE lives with his dad. He lives at home in CHICAGO. He is Single. Additional social history reported by RONNIE is: has working smoke/co detector; no cig smoking; . </td><td>Celeste McFarland </td></tr><tr ID=\"d58402e100-1.2.840.113619.21.1.139060385287897942.10.1591243499923.284836\"><td align=\"center\">\"</td><td>social history reviewed E&amp;M</td><td>reviewed today</td><td>Celeste McFarland </td></tr><tr ID=\"d58402e187-1.2.840.113619.21.1.139060385287897942.10.1591243499923.284836\"><td align=\"center\">\"</td><td>if the patient is using/has used a vaping item, Current, Former, Never Used, Not asked</td><td>No</td><td>Celeste McFarland </td></tr><tr ID=\"d58402e274-1.2.840.113619.21.1.139060385287897942.10.1591243499923.284836\"><td align=\"center\">\"</td><td>smoking status</td><td>never smoker</td><td>Celeste McFarland </td></tr></tbody></table>"
            },
            "code": {
              "coding": [
                {
                  "code": "29762-2",
                  "system": "http://loinc.org",
                  "display": "SOCIAL HISTORY"
                }
              ]
            },
            "mode": "snapshot",
            "entry": [
              {
                "reference": "Observation/66a230b2-9545-ed24-fd4f-5996263562b3"
              },
              {
                "reference": "Observation/dcefdc50-6e02-317b-a450-108fe7c1a22d"
              },
              {
                "reference": "Observation/eb8895d8-fda8-ecc7-f40b-588152a725ea"
              },
              {
                "reference": "Observation/26aa085a-6a55-ab69-8cc2-0bbce518bc2b"
              }
            ]
          },
          {
            "id": "1c91a10c-fb15-039c-e05d-2a3ac28a5db5",
            "title": "ENCOUNTERS",
            "text": {
              "status": "generated",
              "div": "<table border=\"1\" width=\"100%\" xmlns=\"urn:hl7-org:v3\"><thead><tr><th align=\"left\">Date</th><th align=\"left\">Type</th><th align=\"left\">Provider</th><th align=\"left\">Location</th><th align=\"left\">Encounter Diagnosis</th></tr></thead><tbody><tr ID=\"d58398e13-1.2.840.113619.21.1.139060385287897942.10.1591243499923.583409\"><td>2020/05/12 - 2020/05/12</td><td>Internal Correspondence</td><td><list listType=\"unordered\"><item>Celeste McFarland </item></list></td><td>Komed Holman Health Center</td><td>UNK</td></tr><tr ID=\"d58398e95-1.2.840.113619.21.1.139060385287897942.10.1591243499923.583409\"><td>2020/05/12 - 2020/05/12</td><td>Virtual Office Visit</td><td><list listType=\"unordered\"><item>Celeste McFarland </item></list></td><td>Komed Holman Health Center</td><td><list listType=\"unordered\"><item>Chlamydia trachomatis</item></list></td></tr><tr ID=\"d58398e188-1.2.840.113619.21.1.139060385287897942.10.1591243499923.583409\"><td>2020/05/08 - 2020/05/08</td><td>Lab Report</td><td><list listType=\"unordered\"><item>Celeste McFarland </item><item>LinkLogic </item></list></td><td>Near North Health Service Corporation</td><td>UNK</td></tr><tr ID=\"d58398e276-1.2.840.113619.21.1.139060385287897942.10.1591243499923.583409\"><td>2020/05/08 - 2020/05/08</td><td>Lab Report</td><td><list listType=\"unordered\"><item>Celeste McFarland </item><item>LinkLogic </item></list></td><td>Near North Health Service Corporation</td><td>UNK</td></tr><tr ID=\"d58398e364-1.2.840.113619.21.1.139060385287897942.10.1591243499923.583409\"><td>2020/05/08 - 2020/05/08</td><td>Consent Forms</td><td><list listType=\"unordered\"><item>Registration NNHSC Desktop </item><item>LinkLogic </item></list></td><td>Komed Holman Health Center</td><td>UNK</td></tr><tr ID=\"d58398e452-1.2.840.113619.21.1.139060385287897942.10.1591243499923.583409\"><td>2020/05/08 - 2020/05/08</td><td>Consent Forms</td><td><list listType=\"unordered\"><item>Registration NNHSC Desktop </item><item>LinkLogic </item></list></td><td>Komed Holman Health Center</td><td>UNK</td></tr><tr ID=\"d58398e541-1.2.840.113619.21.1.139060385287897942.10.1591243499923.583409\"><td>2020/05/08 - 2020/05/08</td><td>Registration</td><td><list listType=\"unordered\"><item>Registration NNHSC Desktop </item><item>LinkLogic </item></list></td><td>Komed Holman Health Center</td><td>UNK</td></tr><tr ID=\"d58398e629-1.2.840.113619.21.1.139060385287897942.10.1591243499923.583409\"><td>2020/05/08 - 2020/05/08</td><td>Office Visit</td><td><list listType=\"unordered\"><item>Celeste McFarland </item><item>Conniecia Holloway </item><item>Charles Tate </item></list></td><td>Komed Holman Health Center</td><td><list listType=\"unordered\"><item>Chlamydia trachomatis</item></list></td></tr></tbody></table>"
            },
            "code": {
              "coding": [
                {
                  "code": "46240-8",
                  "system": "http://loinc.org",
                  "display": "ENCOUNTERS"
                }
              ]
            },
            "mode": "snapshot"
          },
          {
            "id": "34a497dc-34a2-f2fb-609e-383aa298aa82",
            "title": "MEDICATIONS ADMINISTERED",
            "text": {
              "status": "generated",
              "div": "No Known MEDICATIONS ADMINISTERED"
            },
            "code": {
              "coding": [
                {
                  "code": "29549-3",
                  "system": "http://loinc.org",
                  "display": "MEDICATIONS ADMINISTERED"
                }
              ]
            },
            "mode": "snapshot",
            "entry": [
              {
                "reference": "MedicationAdministration/99a25025-5ff2-8b61-08a3-e2ebfdb8ca13"
              }
            ]
          },
          {
            "id": "3a8bdf2e-6daa-5005-aa33-6a2399cf46e2",
            "title": "HISTORY OF MEDICATION USE",
            "text": {
              "status": "generated",
              "div": "<table border=\"1\" width=\"100%\" xmlns=\"urn:hl7-org:v3\"><thead><tr><th align=\"left\">Medication</th><th align=\"left\">Status</th><th align=\"left\">Instructions</th><th align=\"left\">Dates</th><th align=\"left\">Provider</th><th align=\"left\">Indications</th><th align=\"left\">Comments</th></tr></thead><tbody><tr ID=\"d58431e18-1.2.840.113619.21.1.139060385287897942.10.1591243500033.469635\"><td ID=\"d58431e81\">AZITHROMYCIN 500 MG ORAL TABLET</td><td>active</td><td ID=\"d58431e84\">take 2 tablets at once</td><td>2020/05/12</td><td>Celeste McFarland </td><td /><td /></tr><tr ID=\"d58431e100-1.2.840.113619.21.1.139060385287897942.10.1591243500033.469635\"><td ID=\"d58431e163\">VENTOLIN HFA 108 (90 Base) MCG/ACT INHALATION AEROSOL SOLUTION</td><td>active</td><td ID=\"d58431e166\">2 puffs every 4 - 6 hours as needed for shortness of breath or chest tightness</td><td>2016/01/04</td><td>Hyo Y Lee </td><td /><td /></tr><tr ID=\"d58431e182-1.2.840.113619.21.1.139060385287897942.10.1591243500033.469635\"><td ID=\"d58431e241\">PULMICORT FLEXHALER 90 MCG/ACT INHALATION AEROSOL POWDER BREATH ACTIVATED</td><td>active</td><td ID=\"d58431e244\">Take 2 puffs inhaled by mouth for asthma maintenance. Consider using this in winter time.</td><td>2016/01/04</td><td>Hyo Y Lee </td><td /><td /></tr></tbody></table>"
            },
            "code": {
              "coding": [
                {
                  "code": "10160-0",
                  "system": "http://loinc.org",
                  "display": "HISTORY OF MEDICATION USE"
                }
              ]
            },
            "mode": "snapshot"
          },
          {
            "id": "e5bbfc14-905f-715a-7f4e-76e7a9371c8a",
            "title": "PROBLEMS",
            "text": {
              "status": "generated",
              "div": "<table border=\"1\" width=\"100%\" xmlns=\"urn:hl7-org:v3\"><thead><tr><th align=\"left\">Condition</th><th align=\"left\">Status</th><th align=\"left\">Date</th><th align=\"left\">Provider</th><th align=\"left\">Notes</th></tr></thead><tbody><tr ID=\"d58389e13-1.2.840.113619.21.1.139060385287897942.10.1591243499908.571134\"><td>Chlamydia trachomatis</td><td>active</td><td>2020/05/08</td><td>Celeste McFarland </td><td /></tr></tbody></table>"
            },
            "code": {
              "coding": [
                {
                  "code": "11450-4",
                  "system": "http://loinc.org",
                  "display": "PROBLEMS"
                }
              ]
            },
            "mode": "snapshot",
            "entry": [
              {
                "display": "Problem - ",
                "reference": "Condition/106ac95e-1a25-ffc8-45e1-05391c19bbde"
              }
            ]
          },
          {
            "id": "9814749b-e939-40e1-cf07-fb7be56d8445",
            "title": "RESULTS",
            "text": {
              "status": "generated",
              "div": "<table border=\"1\" width=\"100%\" xmlns=\"urn:hl7-org:v3\"><thead><tr><th align=\"left\">Date</th><th align=\"left\">Observation</th><th align=\"left\">Value</th><th align=\"left\">Provider</th><th align=\"left\">Reference Range</th><th align=\"left\">Interpretation</th><th align=\"left\">Location</th></tr></thead><tbody><tr ID=\"d58412e13-1.2.840.113619.21.1.139060385287897942.10.1591243499939.875438\"><td align=\"left\">2020/05/08</td><td>rapid plasma reagin antibody, serum</td><td>Non Reactive</td><td>LinkLogic </td><td>Non Reactive</td><td /><td /></tr><tr ID=\"d58412e112-1.2.840.113619.21.1.139060385287897942.10.1591243499939.875438\"><td align=\"center\">\"</td><td>Neisseria gonorrhoeae DNA probe</td><td>Negative</td><td>LinkLogic </td><td>Negative</td><td /><td /></tr><tr ID=\"d58412e211-1.2.840.113619.21.1.139060385287897942.10.1591243499939.875438\"><td align=\"center\">\"</td><td>chlamydia DNA probe</td><td>Positive</td><td>LinkLogic </td><td>Negative</td><td>Abnormal</td><td /></tr></tbody></table>"
            },
            "code": {
              "coding": [
                {
                  "code": "30954-2",
                  "system": "http://loinc.org",
                  "display": "RESULTS"
                }
              ]
            },
            "mode": "snapshot",
            "entry": [
              {
                "reference": "Observation/6ad3c6a9-1bdf-71bc-71a0-9443b1ac94e7",
                "display": "rapid plasma reagin antibody, serum"
              },
              {
                "reference": "Observation/bd372958-ad0a-47ab-c3c7-36d91584c20d",
                "display": "Neisseria gonorrhoeae DNA probe"
              },
              {
                "reference": "Observation/77c544eb-086f-9b3f-fd28-dfe9e1cd9c57",
                "display": "chlamydia DNA probe"
              }
            ]
          }
        ],
        "subject": {
          "reference": "Patient/1be1d4e3-b556-6db6-3932-3d6333eed75c"
        },
        "encounter": {
          "reference": "Encounter/bb44bb8e-af4d-7cf5-b8a0-bfed3557d83a"
        },
        "custodian": {
          "reference": "Organization/2bae76ef-8be0-941b-6672-72b84298d223"
        },
        "author": [
          {
            "reference": "PractitionerRole/22cf0a2c-3c50-d0cf-88ee-78f19e27f85d"
          },
          {
            "reference": "Device/48c756a8-18ae-5310-e8d7-2de6957e99b8"
          }
        ]
      },
      "request": {
        "method": "PUT",
        "url": "Composition/1906844699671490"
      }
    },
    {
      "fullUrl": "urn:uuid:bb44bb8e-af4d-7cf5-b8a0-bfed3557d83a",
      "resource": {
        "resourceType": "Encounter",
        "id": "bb44bb8e-af4d-7cf5-b8a0-bfed3557d83a",
        "status": "unknown",
        "class": {
          "code": "PHC2237",
          "system": "2.16.840.1.114222.4.5.274",
          "display": "External Encounter"
        },
        "identifier": [
          {
            "extension": {
              "url": "http://hl7.org/fhir/ValueSet/data-absent-reason",
              "valueCode": "not-applicable"
            }
          }
        ],
        "subject": {
          "reference": "Patient/1be1d4e3-b556-6db6-3932-3d6333eed75c"
        },
        "location": [
          {
            "id": "2.16.840.1.113883.4.6",
            "location": {
              "reference": "Location/bdf4bd41-5f95-3434-7bad-c22f469af6db",
              "display": "None"
            },
            "extension": [
              {
                "url": "http://build.fhir.org/ig/HL7/case-reporting/StructureDefinition-us-ph-location-definitions.html#Location.type",
                "valueCodeableConcept": {
                  "coding": [
                    {
                      "system": "http://hl7.org/fhir/sid/us-npi"
                    }
                  ]
                }
              }
            ]
          }
        ],
        "serviceProvider": {
          "reference": "Organization/42e178bb-0fd1-7329-a02e-c06b5c9782b8"
        },
        "participant": [
          {
            "type": [
              {
                "coding": [
                  {
                    "system": "http://terminology.hl7.org/CodeSystem/v3-ParticipationType",
                    "code": "ATND"
                  }
                ]
              }
            ],
            "individual": {
              "reference": "PractitionerRole/e8d30303-e0a1-2dbb-bddb-d208c95aad77"
            }
          }
        ]
      },
      "request": {
        "method": "PUT",
        "url": "Encounter/bb44bb8e-af4d-7cf5-b8a0-bfed3557d83a"
      }
    },
    {
      "fullUrl": "urn:uuid:bdf4bd41-5f95-3434-7bad-c22f469af6db",
      "resource": {
        "resourceType": "Location",
        "id": "bdf4bd41-5f95-3434-7bad-c22f469af6db",
        "identifier": [
          {
            "system": "http://hl7.org/fhir/sid/us-npi",
            "_value": {
              "extension": {
                "url": "http://hl7.org/fhir/ValueSet/data-absent-reason",
                "valueCode": "not-applicable"
              }
            }
          }
        ],
        "type": [
          {
            "coding": [
              {
                "system": "http://hl7.org/fhir/sid/us-npi"
              }
            ]
          }
        ]
      },
      "request": {
        "method": "PUT",
        "url": "Location/bdf4bd41-5f95-3434-7bad-c22f469af6db"
      }
    },
    {
      "fullUrl": "urn:uuid:42e178bb-0fd1-7329-a02e-c06b5c9782b8",
      "resource": {
        "resourceType": "Organization",
        "id": "42e178bb-0fd1-7329-a02e-c06b5c9782b8"
      },
      "request": {
        "method": "PUT",
        "url": "Organization/42e178bb-0fd1-7329-a02e-c06b5c9782b8"
      }
    },
    {
      "fullUrl": "urn:uuid:e8d30303-e0a1-2dbb-bddb-d208c95aad77",
      "resource": {
        "resourceType": "Practitioner",
        "id": "e8d30303-e0a1-2dbb-bddb-d208c95aad77",
        "meta": {
          "profile": [
            "http://hl7.org/fhir/us/core/StructureDefinition/us-core-practitioner"
          ]
        },
        "extension": [
          {
            "url": "http://hl7.org/fhir/StructureDefinition/_datatype",
            "valueString": "Responsible Party"
          }
        ],
        "identifier": [
          {
            "system": "http://hl7.org/fhir/sid/us-npi",
            "_value": {
              "extension": {
                "url": "http://hl7.org/fhir/ValueSet/data-absent-reason",
                "valueCode": "not-applicable"
              }
            }
          }
        ]
      },
      "request": {
        "method": "PUT",
        "url": "Practitioner/e8d30303-e0a1-2dbb-bddb-d208c95aad77"
      }
    },
    {
      "resource": {
        "resourceType": "PractitionerRole",
        "id": "e8d30303-e0a1-2dbb-bddb-d208c95aad77",
        "practitioner": {
          "reference": "Practitioner/e8d30303-e0a1-2dbb-bddb-d208c95aad77"
        },
        "organization": {
          "reference": "Organization/43eaaf8e-f805-d37c-8e4e-77965eef87aa"
        }
      }
    },
    {
      "fullUrl": "urn:uuid:43eaaf8e-f805-d37c-8e4e-77965eef87aa",
      "resource": {
        "resourceType": "Organization",
        "id": "43eaaf8e-f805-d37c-8e4e-77965eef87aa"
      },
      "request": {
        "method": "PUT",
        "url": "Organization/43eaaf8e-f805-d37c-8e4e-77965eef87aa"
      }
    },
    {
      "fullUrl": "urn:uuid:2bae76ef-8be0-941b-6672-72b84298d223",
      "resource": {
        "resourceType": "Organization",
        "id": "2bae76ef-8be0-941b-6672-72b84298d223",
        "identifier": [
          {
            "system": "urn:oid:1.2.840.113619.21.1.139060385287897942.9",
            "value": "Organization/LO-1454412490000610",
            "assigner": {
              "display": " API Resource Identifier"
            }
          },
          {
            "system": "UNK",
            "value": "LO-1454412490000610",
            "assigner": {
              "display": "Organization Identifier"
            }
          },
          {
            "system": "urn:oid:2.16.840.1.113883.4.2",
            "value": "363197647",
            "assigner": {
              "display": "Tax ID number"
            }
          }
        ],
        "name": "Komed Holman Health Center",
        "address": [
          {
            "line": [
              "4259 S. Berkeley"
            ],
            "city": "Chicago",
            "state": "IL",
            "country": "USA",
            "postalCode": "60653"
          }
        ],
        "telecom": [
          {
            "system": "phone",
            "value": "7732687600",
            "use": "work"
          }
        ]
      },
      "request": {
        "method": "PUT",
        "url": "Organization/2bae76ef-8be0-941b-6672-72b84298d223"
      }
    },
    {
      "fullUrl": "urn:uuid:406c3e36-d27a-041b-61a8-e29df69f50e1",
      "resource": {
        "resourceType": "Practitioner",
        "id": "406c3e36-d27a-041b-61a8-e29df69f50e1",
        "meta": {
          "profile": [
            "http://hl7.org/fhir/us/core/StructureDefinition/us-core-practitioner"
          ]
        },
        "identifier": [
          {
            "system": "urn:oid:1.2.840.113619.21.1.139060385287897942.2.2",
            "value": "1467041069000630",
            "assigner": {
              "display": " Providers by PVID"
            }
          },
          {
            "system": "urn:oid:1.2.840.113619.21.1.139060385287897942.2.1",
            "value": "365",
            "assigner": {
              "display": " Providers by DoctorFacility"
            }
          }
        ],
        "name": [
          {
            "family": "Nurse Desk",
            "given": [
              "KH WH"
            ]
          }
        ],
        "address": [
          {
            "line": [
              "Winfield Moody",
              "1276 N Clybourn"
            ],
            "city": "Chicago",
            "state": "IL",
            "postalCode": "60653"
          }
        ],
        "telecom": [
          {
            "system": "phone",
            "value": "3123371073",
            "use": "work"
          },
          {
            "system": "phone",
            "value": "3123377616",
            "use": "mobile"
          }
        ]
      },
      "request": {
        "method": "PUT",
        "url": "Practitioner/406c3e36-d27a-041b-61a8-e29df69f50e1"
      }
    },
    {
      "fullUrl": "urn:uuid:01fe444a-5df3-6915-447b-5b16fe2c6872",
      "resource": {
        "resourceType": "Organization",
        "id": "01fe444a-5df3-6915-447b-5b16fe2c6872",
        "identifier": [
          {
            "system": "urn:oid:1.2.840.113619.21.1.139060385287897942.9",
            "value": "Organization/DF-76",
            "assigner": {
              "display": " API Resource Identifier"
            }
          },
          {
            "system": "UNK",
            "value": "DF-76",
            "assigner": {
              "display": "Organization Identifier"
            }
          },
          {
            "system": "http://hl7.org/fhir/sid/us-npi",
            "value": "1821079088",
            "assigner": {
              "display": "National Provider Identifier"
            }
          },
          {
            "system": "urn:oid:2.16.840.1.113883.4.2",
            "value": "363197647",
            "assigner": {
              "display": "Tax ID number"
            }
          }
        ],
        "name": "Winfield Moody Health Center",
        "address": [
          {
            "line": [
              "1276 N Clybourn"
            ],
            "city": "Chicago",
            "state": "IL ",
            "postalCode": "60610     "
          }
        ],
        "telecom": [
          {
            "system": "phone",
            "value": "3123371073     ",
            "use": "work"
          }
        ]
      },
      "request": {
        "method": "PUT",
        "url": "Organization/01fe444a-5df3-6915-447b-5b16fe2c6872"
      }
    },
    {
      "resource": {
        "resourceType": "PractitionerRole",
        "id": "22cf0a2c-3c50-d0cf-88ee-78f19e27f85d",
        "organization": {
          "reference": "Organization/01fe444a-5df3-6915-447b-5b16fe2c6872"
        },
        "practitioner": {
          "reference": "Practitioner/406c3e36-d27a-041b-61a8-e29df69f50e1"
        }
      }
    },
    {
      "fullUrl": "urn:uuid:48c756a8-18ae-5310-e8d7-2de6957e99b8",
      "resource": {
        "resourceType": "Device",
        "id": "48c756a8-18ae-5310-e8d7-2de6957e99b8",
        "identifier": [
          {
            "system": "urn:ietf:rfc:3986",
            "value": "urn:oid:1.2.840.113619.21.1.139060385287897942.11"
          }
        ],
        "manufacturer": "12.3/9.12",
        "version": [
          {
            "value": "GE Healthcare API Server"
          }
        ],
        "property": [
          {
            "type": {
              "coding": [
                {
                  "system": "http://hl7.org/fhir/device-category",
                  "code": "software",
                  "display": "software"
                }
              ]
            }
          }
        ],
        "owner": {
          "reference": "Organization/2bae76ef-8be0-941b-6672-72b84298d223"
        }
      },
      "request": {
        "method": "PUT",
        "url": "Device/48c756a8-18ae-5310-e8d7-2de6957e99b8"
      }
    },
    {
      "fullUrl": "urn:uuid:1be1d4e3-b556-6db6-3932-3d6333eed75c",
      "resource": {
        "resourceType": "Patient",
        "id": "1be1d4e3-b556-6db6-3932-3d6333eed75c",
        "meta": {
          "profile": [
            "http://hl7.org/fhir/us/core/StructureDefinition/us-core-patient"
          ]
        },
        "identifier": [
          {
            "system": "urn:oid:1.2.840.113619.21.1.139060385287897942.2.1.1.1",
            "value": "1591091941004300"
          },
          {
            "system": "urn:oid:1.2.840.113619.21.1.139060385287897942.2.1.1.2",
            "value": "145693",
            "assigner": {
              "display": "GE EMR-CPS PatientId"
            }
          },
          {
            "system": "urn:oid:1.2.840.113619.21.1.139060385287897942.2.1.1",
            "value": "K112547",
            "assigner": {
              "display": "GE EMR-CPS PatientMRN"
            }
          }
        ],
        "name": [
          {
            "use": "official",
            "family": "Patient1",
            "given": [
              "Sample"
            ]
          }
        ],
        "birthDate": "1991-01-01",
        "deceasedBoolean": false,
        "gender": "female",
        "extension": [
          {
            "url": "http://hl7.org/fhir/us/core/StructureDefinition/us-core-race",
            "extension": [
              {
                "url": "ombCategory",
                "valueCoding": {
                  "code": "2054-5",
                  "system": "urn:oid:2.16.840.1.113883.6.238",
                  "display": "Black or African American"
                }
              },
              {
                "url": "text",
                "valueString": "Black or African American"
              }
            ]
          },
          {
            "url": "http://hl7.org/fhir/us/core/StructureDefinition/us-core-ethnicity",
            "extension": [
              {
                "url": "ombCategory",
                "valueCoding": {
                  "code": "2186-5",
                  "system": "urn:oid:2.16.840.1.113883.6.238",
                  "display": "Not Hispanic or Latino"
                }
              },
              {
                "url": "text",
                "valueString": "Not Hispanic or Latino"
              }
            ]
          }
        ],
        "address": [
          {
            "line": [
              "1 Sample Street",
              "apt 2"
            ],
            "city": "Chicago",
            "state": "IL",
            "postalCode": "60653"
          }
        ],
        "telecom": [
          {
            "system": "phone",
            "value": "3129998888",
            "use": "mobile"
          }
        ],
        "communication": [
          {
            "language": {
              "coding": [
                {
                  "system": "urn:ietf:bcp:47",
                  "code": "en",
                  "display": "English"
                }
              ]
            },
            "preferred": true
          }
        ]
      },
      "request": {
        "method": "PUT",
        "url": "Patient/1be1d4e3-b556-6db6-3932-3d6333eed75c"
      }
    },
    {
      "fullUrl": "urn:uuid:99a25025-5ff2-8b61-08a3-e2ebfdb8ca13",
      "resource": {
        "resourceType": "MedicationAdministration",
        "id": "99a25025-5ff2-8b61-08a3-e2ebfdb8ca13",
        "identifier": [
          {
            "system": "urn:ietf:rfc:3986",
            "value": "urn:oid:1.2.840.113619.21.1.139060385287897942.10.1591243499892.590364"
          }
        ],
        "status": "in-progress",
        "effectivePeriod": {
          "start": "1970-01-01T00:00:00",
          "end": "2020-06-03T23:04:59.892-05:00"
        },
        "subject": {
          "reference": "Patient/1be1d4e3-b556-6db6-3932-3d6333eed75c"
        },
        "medicationReference": {
          "reference": "Medication/cfbe2a1a-c8da-ec09-57cb-0f4fdfc02412"
        }
      },
      "request": {
        "method": "PUT",
        "url": "MedicationAdministration/99a25025-5ff2-8b61-08a3-e2ebfdb8ca13"
      }
    },
    {
      "fullUrl": "urn:uuid:cfbe2a1a-c8da-ec09-57cb-0f4fdfc02412",
      "resource": {
        "resourceType": "Medication",
        "id": "cfbe2a1a-c8da-ec09-57cb-0f4fdfc02412",
        "code": {
          "coding": [
            {
              "system": "http://www.nlm.nih.gov/research/umls/rxnorm"
            },
            {
              "code": "410942007",
              "system": "http://snomed.info/sct",
              "display": "drug or medication"
            }
          ]
        }
      },
      "request": {
        "method": "PUT",
        "url": "Medication/cfbe2a1a-c8da-ec09-57cb-0f4fdfc02412"
      }
    },
    {
      "fullUrl": "urn:uuid:8cac95b6-37de-e3d6-eecb-7a0a99062611",
      "resource": {
        "resourceType": "MedicationStatement",
        "id": "8cac95b6-37de-e3d6-eecb-7a0a99062611",
        "identifier": [
          {
            "system": "urn:oid:1.2.840.113619.21.1.139060385287897942.9",
            "value": "MedicationStatement/1904919073844990",
            "assigner": {
              "display": " API Resource Identifier"
            }
          }
        ],
        "status": "active",
        "effectivePeriod": {
          "start": "2020-05-12T00:00:00-05:00"
        },
        "subject": {
          "reference": "Patient/1be1d4e3-b556-6db6-3932-3d6333eed75c"
        },
        "medicationReference": {
          "reference": "Medication/65f63e94-64a1-cf89-3c94-11189604d417"
        }
      },
      "request": {
        "method": "PUT",
        "url": "MedicationStatement/8cac95b6-37de-e3d6-eecb-7a0a99062611"
      }
    },
    {
      "fullUrl": "urn:uuid:65f63e94-64a1-cf89-3c94-11189604d417",
      "resource": {
        "resourceType": "Medication",
        "id": "65f63e94-64a1-cf89-3c94-11189604d417",
        "code": {
          "coding": [
            {
              "code": "248656",
              "system": "http://www.nlm.nih.gov/research/umls/rxnorm",
              "display": "AZITHROMYCIN"
            },
            {
              "code": "749780",
              "system": "http://www.nlm.nih.gov/research/umls/rxnorm",
              "display": "{3 (azithromycin 500 MG Oral Tablet) } Pack"
            },
            {
              "code": "44793",
              "system": "2.16.840.1.113883.6.253"
            },
            {
              "code": "03400010000334",
              "system": "2.16.840.1.113883.6.68"
            },
            {
              "code": "5799",
              "system": "1.2.840.113619.21.100.12.998"
            },
            {
              "code": "1944",
              "system": "1.2.840.113619.21.100.12.999"
            },
            {
              "code": "50111078810",
              "system": "2.16.840.1.113883.6.69"
            }
          ],
          "text": "(AZITHROMYCIN) 500 MG TABS"
        }
      },
      "request": {
        "method": "PUT",
        "url": "Medication/65f63e94-64a1-cf89-3c94-11189604d417"
      }
    },
    {
      "fullUrl": "urn:uuid:be514526-32ad-be2b-74c3-59d1af554be4",
      "resource": {
        "resourceType": "MedicationRequest",
        "id": "be514526-32ad-be2b-74c3-59d1af554be4",
        "identifier": [
          {
            "system": "urn:oid:1.2.840.113619.21.1.139060385287897942.9",
            "value": "MedicationOrder/1904919073845050",
            "assigner": {
              "display": " API Resource Identifier"
            }
          },
          {
            "system": "UNK",
            "value": "C2E218AAB84246A1A1BADBDB29EDF6D7",
            "assigner": {
              "display": "Unknown"
            }
          }
        ],
        "status": "completed",
        "intent": "order",
        "authoredOn": "2020-05-12T16:12:36.223-05:00",
        "dispenseRequest": {
          "numberOfRepeatsAllowed": 0
        },
        "subject": {
          "reference": "Patient/1be1d4e3-b556-6db6-3932-3d6333eed75c"
        },
        "medicationReference": {
          "reference": "Medication/65f63e94-64a1-cf89-3c94-11189604d417"
        },
        "requester": {
          "reference": "Practitioner/73717b35-3a2b-0622-8d61-041c04256f86"
        }
      },
      "request": {
        "method": "PUT",
        "url": "MedicationRequest/be514526-32ad-be2b-74c3-59d1af554be4"
      }
    },
    {
      "fullUrl": "urn:uuid:73717b35-3a2b-0622-8d61-041c04256f86",
      "resource": {
        "resourceType": "Practitioner",
        "id": "73717b35-3a2b-0622-8d61-041c04256f86",
        "meta": {
          "profile": [
            "http://hl7.org/fhir/us/core/StructureDefinition/us-core-practitioner"
          ]
        },
        "identifier": [
          {
            "system": "urn:oid:1.2.840.113619.21.1.139060385287897942.2.2",
            "value": "1875366763073270",
            "assigner": {
              "display": " Providers by PVID"
            }
          },
          {
            "system": "urn:oid:1.2.840.113619.21.1.139060385287897942.2.1",
            "value": "1774",
            "assigner": {
              "display": " Providers by DoctorFacility"
            }
          },
          {
            "system": "http://hl7.org/fhir/sid/us-npi",
            "value": "1326540782",
            "assigner": {
              "display": "US National Provider Identifiers"
            }
          },
          {
            "system": "urn:oid:2.16.840.1.113883.4.2",
            "value": "363197647",
            "assigner": {
              "display": "Federal Tax Identifier"
            }
          }
        ],
        "name": [
          {
            "family": "McFarland",
            "given": [
              "Celeste"
            ]
          }
        ],
        "address": [
          {
            "line": [
              "Winfield Moody",
              "1276 N. Clybourn"
            ],
            "city": "Chicago",
            "state": "IL",
            "postalCode": "60610"
          }
        ],
        "telecom": [
          {
            "system": "phone",
            "value": "3123371073",
            "use": "work"
          },
          {
            "system": "phone",
            "value": "3123377616",
            "use": "mobile"
          }
        ]
      },
      "request": {
        "method": "PUT",
        "url": "Practitioner/73717b35-3a2b-0622-8d61-041c04256f86"
      }
    },
    {
      "fullUrl": "urn:uuid:4180fb5f-6a81-b17a-0b15-7a92e5fc544d",
      "resource": {
        "resourceType": "MedicationStatement",
        "id": "4180fb5f-6a81-b17a-0b15-7a92e5fc544d",
        "identifier": [
          {
            "system": "urn:oid:1.2.840.113619.21.1.139060385287897942.9",
            "value": "MedicationStatement/1767517661132430",
            "assigner": {
              "display": " API Resource Identifier"
            }
          }
        ],
        "status": "active",
        "effectivePeriod": {
          "start": "2016-01-04T00:00:00-06:00"
        },
        "subject": {
          "reference": "Patient/1be1d4e3-b556-6db6-3932-3d6333eed75c"
        },
        "medicationReference": {
          "reference": "Medication/fc55e48d-c3e9-c02b-f907-f37aa97c9266"
        }
      },
      "request": {
        "method": "PUT",
        "url": "MedicationStatement/4180fb5f-6a81-b17a-0b15-7a92e5fc544d"
      }
    },
    {
      "fullUrl": "urn:uuid:fc55e48d-c3e9-c02b-f907-f37aa97c9266",
      "resource": {
        "resourceType": "Medication",
        "id": "fc55e48d-c3e9-c02b-f907-f37aa97c9266",
        "code": {
          "coding": [
            {
              "code": "801095",
              "system": "http://www.nlm.nih.gov/research/umls/rxnorm",
              "display": "ALBUTEROL SULFATE"
            },
            {
              "code": "859088",
              "system": "http://www.nlm.nih.gov/research/umls/rxnorm",
              "display": "NDA020983 200 ACTUAT albuterol 0.09 MG/ACTUAT Metered Dose Inhaler [Ventolin]"
            },
            {
              "code": "75556",
              "system": "2.16.840.1.113883.6.253"
            },
            {
              "code": "44201010103410",
              "system": "2.16.840.1.113883.6.68"
            },
            {
              "code": "2486",
              "system": "1.2.840.113619.21.100.12.998"
            },
            {
              "code": "24615",
              "system": "1.2.840.113619.21.100.12.999"
            },
            {
              "code": "00173068220",
              "system": "2.16.840.1.113883.6.69"
            }
          ],
          "text": "VENTOLIN HFA (ALBUTEROL SULFATE) 108 (90 Base) MCG/ACT AERS"
        }
      },
      "request": {
        "method": "PUT",
        "url": "Medication/fc55e48d-c3e9-c02b-f907-f37aa97c9266"
      }
    },
    {
      "fullUrl": "urn:uuid:1c9cc6c3-793d-ac0b-e7fe-d4defa0a34b9",
      "resource": {
        "resourceType": "MedicationRequest",
        "id": "1c9cc6c3-793d-ac0b-e7fe-d4defa0a34b9",
        "identifier": [
          {
            "system": "urn:oid:1.2.840.113619.21.1.139060385287897942.9",
            "value": "MedicationOrder/1767517661132460",
            "assigner": {
              "display": " API Resource Identifier"
            }
          }
        ],
        "status": "completed",
        "intent": "order",
        "authoredOn": "2016-01-04T09:09:11.573-06:00",
        "dispenseRequest": {
          "numberOfRepeatsAllowed": 5
        },
        "subject": {
          "reference": "Patient/1be1d4e3-b556-6db6-3932-3d6333eed75c"
        },
        "medicationReference": {
          "reference": "Medication/fc55e48d-c3e9-c02b-f907-f37aa97c9266"
        },
        "requester": {
          "reference": "Practitioner/9468aa4d-44ec-eb72-393a-759d8481de82"
        }
      },
      "request": {
        "method": "PUT",
        "url": "MedicationRequest/1c9cc6c3-793d-ac0b-e7fe-d4defa0a34b9"
      }
    },
    {
      "fullUrl": "urn:uuid:9468aa4d-44ec-eb72-393a-759d8481de82",
      "resource": {
        "resourceType": "Practitioner",
        "id": "9468aa4d-44ec-eb72-393a-759d8481de82",
        "meta": {
          "profile": [
            "http://hl7.org/fhir/us/core/StructureDefinition/us-core-practitioner"
          ]
        },
        "identifier": [
          {
            "system": "urn:oid:1.2.840.113619.21.1.139060385287897942.2.2",
            "value": "1744198265207450",
            "assigner": {
              "display": " Providers by PVID"
            }
          },
          {
            "system": "urn:oid:1.2.840.113619.21.1.139060385287897942.2.1",
            "value": "1157",
            "assigner": {
              "display": " Providers by DoctorFacility"
            }
          },
          {
            "system": "http://hl7.org/fhir/sid/us-npi",
            "value": "1588981138",
            "assigner": {
              "display": "US National Provider Identifiers"
            }
          },
          {
            "system": "urn:oid:2.16.840.1.113883.4.2",
            "value": "363197647",
            "assigner": {
              "display": "Federal Tax Identifier"
            }
          }
        ],
        "name": [
          {
            "family": "Lee",
            "given": [
              "Hyo",
              "Y"
            ]
          }
        ],
        "address": [
          {
            "line": [
              "Komed Holman Health Center",
              "4259 S. Berkeley Ave"
            ],
            "city": "Chicago",
            "state": "IL",
            "postalCode": "60653"
          }
        ],
        "telecom": [
          {
            "system": "phone",
            "value": "7732687600",
            "use": "work"
          },
          {
            "system": "phone",
            "value": "7762689088",
            "use": "mobile"
          }
        ]
      },
      "request": {
        "method": "PUT",
        "url": "Practitioner/9468aa4d-44ec-eb72-393a-759d8481de82"
      }
    },
    {
      "fullUrl": "urn:uuid:9b27d916-aa1b-4cbc-b02b-924638189c54",
      "resource": {
        "resourceType": "MedicationStatement",
        "id": "9b27d916-aa1b-4cbc-b02b-924638189c54",
        "identifier": [
          {
            "system": "urn:oid:1.2.840.113619.21.1.139060385287897942.9",
            "value": "MedicationStatement/1767517661132390",
            "assigner": {
              "display": " API Resource Identifier"
            }
          }
        ],
        "status": "active",
        "effectivePeriod": {
          "start": "2016-01-04T00:00:00-06:00"
        },
        "subject": {
          "reference": "Patient/1be1d4e3-b556-6db6-3932-3d6333eed75c"
        },
        "medicationReference": {
          "reference": "Medication/58641881-9695-7733-af56-93210961484e"
        }
      },
      "request": {
        "method": "PUT",
        "url": "MedicationStatement/9b27d916-aa1b-4cbc-b02b-924638189c54"
      }
    },
    {
      "fullUrl": "urn:uuid:58641881-9695-7733-af56-93210961484e",
      "resource": {
        "resourceType": "Medication",
        "id": "58641881-9695-7733-af56-93210961484e",
        "code": {
          "coding": [
            {
              "code": "966529",
              "system": "http://www.nlm.nih.gov/research/umls/rxnorm",
              "display": "BUDESONIDE"
            },
            {
              "code": "141788",
              "system": "2.16.840.1.113883.6.253"
            },
            {
              "code": "44400015008009",
              "system": "2.16.840.1.113883.6.68"
            },
            {
              "code": "23999",
              "system": "1.2.840.113619.21.100.12.998"
            },
            {
              "code": "50530",
              "system": "1.2.840.113619.21.100.12.999"
            },
            {
              "code": "00186091706",
              "system": "2.16.840.1.113883.6.69"
            }
          ],
          "text": "PULMICORT FLEXHALER (BUDESONIDE) 90 MCG/ACT AEPB"
        }
      },
      "request": {
        "method": "PUT",
        "url": "Medication/58641881-9695-7733-af56-93210961484e"
      }
    },
    {
      "fullUrl": "urn:uuid:a78d5e99-6a10-dd19-a0c7-a0b4f048bbaa",
      "resource": {
        "resourceType": "MedicationRequest",
        "id": "a78d5e99-6a10-dd19-a0c7-a0b4f048bbaa",
        "identifier": [
          {
            "system": "urn:oid:1.2.840.113619.21.1.139060385287897942.9",
            "value": "MedicationOrder/1767517661132420",
            "assigner": {
              "display": " API Resource Identifier"
            }
          }
        ],
        "status": "completed",
        "intent": "order",
        "authoredOn": "2016-01-04T09:09:11.150-06:00",
        "dispenseRequest": {
          "numberOfRepeatsAllowed": 5
        },
        "subject": {
          "reference": "Patient/1be1d4e3-b556-6db6-3932-3d6333eed75c"
        },
        "medicationReference": {
          "reference": "Medication/58641881-9695-7733-af56-93210961484e"
        },
        "requester": {
          "reference": "Practitioner/9468aa4d-44ec-eb72-393a-759d8481de82"
        }
      },
      "request": {
        "method": "PUT",
        "url": "MedicationRequest/a78d5e99-6a10-dd19-a0c7-a0b4f048bbaa"
      }
    },
    {
      "fullUrl": "urn:uuid:106ac95e-1a25-ffc8-45e1-05391c19bbde",
      "resource": {
        "resourceType": "Condition",
        "id": "106ac95e-1a25-ffc8-45e1-05391c19bbde",
        "identifier": [
          {
            "system": "urn:oid:1.2.840.113619.21.1.139060385287897942.9",
            "value": "Condition/1904549096748690",
            "assigner": {
              "display": "31913-41995-12761042 API Resource Identifier"
            }
          }
        ],
        "category": [
          {
            "coding": [
              {
                "code": "problem-item-list",
                "display": "Problem List Item",
                "system": "http://hl7.org/fhir/us/core/ValueSet/us-core-condition-category"
              }
            ]
          }
        ],
        "code": {
          "coding": [
            {
              "code": "240589008",
              "system": "http://snomed.info/sct",
              "display": "Chlamydia trachomatis"
            },
            {
              "code": "A74.9",
              "system": "2.16.840.1.113883.6.90"
            },
            {
              "code": "099.41",
              "system": "2.16.840.1.113883.6.103"
            },
            {
              "code": "ICD-099.41",
              "system": "1.2.840.113619.21.1.139060385287897942.2.1.1.4"
            }
          ],
          "text": "Chlamydia trachomatis"
        },
        "onsetDateTime": "2020-05-08T00:00:00-05:00",
        "subject": {
          "reference": "Patient/1be1d4e3-b556-6db6-3932-3d6333eed75c"
        }
      },
      "request": {
        "method": "PUT",
        "url": "Condition/106ac95e-1a25-ffc8-45e1-05391c19bbde"
      }
    },
    {
      "fullUrl": "urn:uuid:7b0ce69e-bff5-08b0-c545-b572b1b2d5f4",
      "resource": {
        "resourceType": "DiagnosticReport",
        "id": "7b0ce69e-bff5-08b0-c545-b572b1b2d5f4",
        "identifier": [
          {
            "system": "urn:oid:1.2.840.113619.21.1.139060385287897942.9",
            "value": "Observation/1904847422386750",
            "assigner": {
              "display": "31913-41995-12761042 API Resource Identifier"
            }
          }
        ],
        "status": "final",
        "code": {
          "coding": [
            {
              "code": "30954-2",
              "system": "http://loinc.org",
              "display": "RESULTS"
            }
          ]
        },
        "subject": {
          "reference": "Patient/1be1d4e3-b556-6db6-3932-3d6333eed75c"
        },
        "result": [
          {
            "reference": "Observation/6ad3c6a9-1bdf-71bc-71a0-9443b1ac94e7"
          },
          {
            "reference": "Observation/bd372958-ad0a-47ab-c3c7-36d91584c20d"
          },
          {
            "reference": "Observation/77c544eb-086f-9b3f-fd28-dfe9e1cd9c57"
          }
        ]
      },
      "request": {
        "method": "PUT",
        "url": "DiagnosticReport/7b0ce69e-bff5-08b0-c545-b572b1b2d5f4"
      }
    },
    {
      "fullUrl": "urn:uuid:6ad3c6a9-1bdf-71bc-71a0-9443b1ac94e7",
      "resource": {
        "resourceType": "Observation",
        "id": "6ad3c6a9-1bdf-71bc-71a0-9443b1ac94e7",
        "meta": {
          "profile": [
            "http://hl7.org/fhir/us/ecr/StructureDefinition/us-ph-lab-result-observation"
          ]
        },
        "identifier": [
          {
            "system": "urn:oid:1.2.840.113619.21.1.139060385287897942.9",
            "value": "Observation/1904847422386750",
            "assigner": {
              "display": "31913-41995-12761042 API Resource Identifier"
            }
          }
        ],
        "category": [
          {
            "coding": [
              {
                "system": "http://terminology.hl7.org/CodeSystem/observation-category",
                "code": "laboratory"
              }
            ]
          }
        ],
        "status": "final",
        "code": {
          "coding": [
            {
              "code": "5291-0",
              "system": "http://loinc.org",
              "display": "Reagin Ab [Units/volume] in Serum by VDRL"
            },
            {
              "code": "308",
              "system": "1.2.840.113619.21.100.12.1053.139060385287897942",
              "display": "RPR"
            }
          ],
          "text": "rapid plasma reagin antibody, serum"
        },
        "effectiveDateTime": "2020-05-08T09:32:00-05:00",
        "valueString": "Non Reactive",
        "referenceRange": [
          {
            "text": "Non Reactive"
          }
        ],
        "subject": {
          "reference": "Patient/1be1d4e3-b556-6db6-3932-3d6333eed75c"
        }
      },
      "request": {
        "method": "PUT",
        "url": "Observation/6ad3c6a9-1bdf-71bc-71a0-9443b1ac94e7"
      }
    },
    {
      "fullUrl": "urn:uuid:bd372958-ad0a-47ab-c3c7-36d91584c20d",
      "resource": {
        "resourceType": "Observation",
        "id": "bd372958-ad0a-47ab-c3c7-36d91584c20d",
        "meta": {
          "profile": [
            "http://hl7.org/fhir/us/ecr/StructureDefinition/us-ph-lab-result-observation"
          ]
        },
        "identifier": [
          {
            "system": "urn:oid:1.2.840.113619.21.1.139060385287897942.9",
            "value": "Observation/1904847422386690",
            "assigner": {
              "display": "31913-41995-12761042 API Resource Identifier"
            }
          }
        ],
        "category": [
          {
            "coding": [
              {
                "system": "http://terminology.hl7.org/CodeSystem/observation-category",
                "code": "laboratory"
              }
            ]
          }
        ],
        "status": "final",
        "code": {
          "coding": [
            {
              "code": "24111-7",
              "system": "http://loinc.org",
              "display": "Neisseria gonorrhoeae DNA [Presence] in Unspecified specimen by NAA with probe detection"
            },
            {
              "code": "2719",
              "system": "1.2.840.113619.21.100.12.1053.139060385287897942",
              "display": "GC DNA PROBE"
            }
          ],
          "text": "Neisseria gonorrhoeae DNA probe"
        },
        "effectiveDateTime": "2020-05-08T09:32:00-05:00",
        "valueString": "Negative",
        "referenceRange": [
          {
            "text": "Negative"
          }
        ],
        "subject": {
          "reference": "Patient/1be1d4e3-b556-6db6-3932-3d6333eed75c"
        }
      },
      "request": {
        "method": "PUT",
        "url": "Observation/bd372958-ad0a-47ab-c3c7-36d91584c20d"
      }
    },
    {
      "fullUrl": "urn:uuid:77c544eb-086f-9b3f-fd28-dfe9e1cd9c57",
      "resource": {
        "resourceType": "Observation",
        "id": "77c544eb-086f-9b3f-fd28-dfe9e1cd9c57",
        "meta": {
          "profile": [
            "http://hl7.org/fhir/us/ecr/StructureDefinition/us-ph-lab-result-observation"
          ]
        },
        "identifier": [
          {
            "system": "urn:oid:1.2.840.113619.21.1.139060385287897942.9",
            "value": "Observation/1904847422386670",
            "assigner": {
              "display": "31913-41995-12761042 API Resource Identifier"
            }
          }
        ],
        "category": [
          {
            "coding": [
              {
                "system": "http://terminology.hl7.org/CodeSystem/observation-category",
                "code": "laboratory"
              }
            ]
          }
        ],
        "status": "final",
        "code": {
          "coding": [
            {
              "code": "21613-5",
              "system": "http://loinc.org",
              "display": "Chlamydia trachomatis DNA [Presence] in Unspecified specimen by NAA with probe detection"
            },
            {
              "code": "14722",
              "system": "1.2.840.113619.21.100.12.1053.139060385287897942",
              "display": "CHLAMYD DNA"
            }
          ],
          "text": "chlamydia DNA probe"
        },
        "effectiveDateTime": "2020-05-08T09:32:00-05:00",
        "valueString": "Positive",
        "referenceRange": [
          {
            "text": "Negative"
          }
        ],
        "interpretation": [
          {
            "coding": [
              {
                "code": "A",
                "system": "http://terminology.hl7.org/CodeSystem/v3-ObservationInterpretation",
                "display": "Abnormal"
              }
            ],
            "text": "Abnormal"
          }
        ],
        "subject": {
          "reference": "Patient/1be1d4e3-b556-6db6-3932-3d6333eed75c"
        }
      },
      "request": {
        "method": "PUT",
        "url": "Observation/77c544eb-086f-9b3f-fd28-dfe9e1cd9c57"
      }
    },
    {
      "fullUrl": "urn:uuid:66a230b2-9545-ed24-fd4f-5996263562b3",
      "resource": {
        "resourceType": "Observation",
        "id": "66a230b2-9545-ed24-fd4f-5996263562b3",
        "meta": {
          "profile": [
            "http://hl7.org/fhir/StructureDefinition/Observation"
          ]
        },
        "identifier": [
          {
            "system": "urn:oid:1.2.840.113619.21.1.139060385287897942.9",
            "value": "Observation/1904919012842970",
            "assigner": {
              "display": "31913-41995-12761042 API Resource Identifier"
            }
          }
        ],
        "category": [
          {
            "coding": [
              {
                "system": "http://terminology.hl7.org/CodeSystem/observation-category",
                "code": "social-history"
              }
            ]
          }
        ],
        "status": "final",
        "code": {
          "coding": [
            {
              "code": "1056",
              "system": "1.2.840.113619.21.100.12.1053.139060385287897942",
              "display": "SOCIAL HX"
            },
            {
              "system": "1.2.840.113619.21.100.12.1053.139060385287897942"
            }
          ],
          "text": "social history E&M"
        },
        "effectiveDateTime": "2020-05-12T16:06:47-05:00",
        "valueString": "He has pets that include has indoor dog. RONNIE lives with his dad. He lives at home in CHICAGO. He is Single. Additional social history reported by RONNIE is: has working smoke/co detector; no cig smoking; . ",
        "subject": {
          "reference": "Patient/1be1d4e3-b556-6db6-3932-3d6333eed75c"
        }
      },
      "request": {
        "method": "PUT",
        "url": "Observation/66a230b2-9545-ed24-fd4f-5996263562b3"
      }
    },
    {
      "fullUrl": "urn:uuid:dcefdc50-6e02-317b-a450-108fe7c1a22d",
      "resource": {
        "resourceType": "Observation",
        "id": "dcefdc50-6e02-317b-a450-108fe7c1a22d",
        "meta": {
          "profile": [
            "http://hl7.org/fhir/StructureDefinition/Observation"
          ]
        },
        "identifier": [
          {
            "system": "urn:oid:1.2.840.113619.21.1.139060385287897942.9",
            "value": "Observation/1904919012842950",
            "assigner": {
              "display": "31913-41995-12761042 API Resource Identifier"
            }
          }
        ],
        "category": [
          {
            "coding": [
              {
                "system": "http://terminology.hl7.org/CodeSystem/observation-category",
                "code": "social-history"
              }
            ]
          }
        ],
        "status": "final",
        "code": {
          "coding": [
            {
              "code": "4768",
              "system": "1.2.840.113619.21.100.12.1053.139060385287897942",
              "display": "SH REVIEWED"
            },
            {
              "system": "1.2.840.113619.21.100.12.1053.139060385287897942"
            }
          ],
          "text": "social history reviewed E&M"
        },
        "effectiveDateTime": "2020-05-12T16:06:47-05:00",
        "valueString": "reviewed today",
        "subject": {
          "reference": "Patient/1be1d4e3-b556-6db6-3932-3d6333eed75c"
        }
      },
      "request": {
        "method": "PUT",
        "url": "Observation/dcefdc50-6e02-317b-a450-108fe7c1a22d"
      }
    },
    {
      "fullUrl": "urn:uuid:eb8895d8-fda8-ecc7-f40b-588152a725ea",
      "resource": {
        "resourceType": "Observation",
        "id": "eb8895d8-fda8-ecc7-f40b-588152a725ea",
        "meta": {
          "profile": [
            "http://hl7.org/fhir/StructureDefinition/Observation"
          ]
        },
        "identifier": [
          {
            "system": "urn:oid:1.2.840.113619.21.1.139060385287897942.9",
            "value": "Observation/1904918917840410",
            "assigner": {
              "display": "31913-41995-12761042 API Resource Identifier"
            }
          }
        ],
        "category": [
          {
            "coding": [
              {
                "system": "http://terminology.hl7.org/CodeSystem/observation-category",
                "code": "social-history"
              }
            ]
          }
        ],
        "status": "final",
        "code": {
          "coding": [
            {
              "code": "549318",
              "system": "1.2.840.113619.21.100.12.1053.139060385287897942",
              "display": "VAPE_USE"
            },
            {
              "system": "1.2.840.113619.21.100.12.1053.139060385287897942"
            }
          ],
          "text": "if the patient is using/has used a vaping item, Current, Former, Never Used, Not asked"
        },
        "effectiveDateTime": "2020-05-12T16:06:47-05:00",
        "valueString": "No",
        "subject": {
          "reference": "Patient/1be1d4e3-b556-6db6-3932-3d6333eed75c"
        }
      },
      "request": {
        "method": "PUT",
        "url": "Observation/eb8895d8-fda8-ecc7-f40b-588152a725ea"
      }
    },
    {
      "fullUrl": "urn:uuid:26aa085a-6a55-ab69-8cc2-0bbce518bc2b",
      "resource": {
        "resourceType": "Observation",
        "id": "26aa085a-6a55-ab69-8cc2-0bbce518bc2b",
        "meta": {
          "profile": [
            "http://hl7.org/fhir/StructureDefinition/Observation"
          ]
        },
        "identifier": [
          {
            "system": "urn:oid:1.2.840.113619.21.1.139060385287897942.9",
            "value": "Observation/1904918917840390",
            "assigner": {
              "display": "31913-41995-12761042 API Resource Identifier"
            }
          }
        ],
        "category": [
          {
            "coding": [
              {
                "system": "http://terminology.hl7.org/CodeSystem/observation-category",
                "code": "social-history"
              }
            ]
          }
        ],
        "status": "final",
        "code": {
          "coding": [
            {
              "code": "72166-2",
              "system": "http://loinc.org",
              "display": "Tobacco smoking status NHIS"
            },
            {
              "code": "11366-2",
              "system": "http://loinc.org",
              "display": "History of tobacco use Narrative"
            },
            {
              "code": "229819007",
              "system": "http://snomed.info/sct",
              "display": "Tobacco use and exposure"
            },
            {
              "code": "300015",
              "system": "1.2.840.113619.21.100.12.1053.139060385287897942",
              "display": "SMOK STATUS"
            }
          ],
          "text": "smoking status"
        },
        "effectiveDateTime": "2020-05-12T16:06:47-05:00",
        "valueCodeableConcept": {
          "coding": [
            {
              "code": "266919005",
              "system": "http://snomed.info/sct",
              "display": "Never smoked tobacco (finding)"
            },
            {
              "code": "72166-2",
              "system": "http://loinc.org",
              "display": "Tobacco smoking status NHIS"
            }
          ],
          "text": "never smoker"
        },
        "subject": {
          "reference": "Patient/1be1d4e3-b556-6db6-3932-3d6333eed75c"
        }
      },
      "request": {
        "method": "PUT",
        "url": "Observation/26aa085a-6a55-ab69-8cc2-0bbce518bc2b"
      }
    }
  ]
}
}