{
  "resourceType": "Bundle",
  "type": "document",
  "meta": {
    "profile": [
      "http://hl7.org/fhir/us/ecr/StructureDefinition/eicr-document-bundle"
    ]
  },
  "id": "db734647-fc99-424c-a864-7e3cda82e704",
  "identifier": {
    "system": "urn:oid:2.16.840.1.113883.9.9.9.9.9",
    "value": "db734647-fc99-424c-a864-7e3cda82e704"
  },
  "timestamp": "2018-11-07T09:44:21-05:00",
  "entry": [
    {
      "fullUrl": "urn:uuid:23d5cd25-76ef-70f0-964c-521a1131ddf3",
      "resource": {
        "resourceType": "Composition",
        "id": "23d5cd25-76ef-70f0-964c-521a1131ddf3",
        "meta": {
          "profile": [
            "http://hl7.org/fhir/us/ecr/StructureDefinition/eicr-composition"
          ]
        },
        "identifier": {
          "use": "official",
          "type": {
            "coding": [
              {
                "code": "55751-2",
                "system": "http://loinc.org",
                "display": "Public health Case report"
              }
            ]
          },
          "value": "31"
        },
        "extension": [
          {
            "url": "http://hl7.org/fhir/StructureDefinition/composition-clinicaldocument-versionNumber",
            "valueString": "2"
          },
          {
            "url": "https://www.hl7.org/implement/standards/product_brief.cfm?product_id=436",
            "valueString": "2019-04-01"
          }
        ],
        "status": "final",
        "type": {
          "coding": [
            {
              "code": "55751-2",
              "system": "http://loinc.org",
              "display": "Public health Case report"
            }
          ]
        },
        "date": "2018-11-07T09:44:21-05:00",
        "title": "Initial Public Health Case Report",
        "confidentiality": "N",
        "section": [
          {
            "id": "d438a0fc-2602-4e75-1566-ebeb921a1e10",
            "title": "Plan of Treatment",
            "text": {
              "status": "generated",
              "div": "<div xmlns=\"http://www.w3.org/1999/xhtml\"><table><thead><tr><th>Initial Case Report Trigger<br />Code Lab Test Order</th><th>Trigger Code</th><th>Trigger Code codeSystem</th><th>RCTC OID</th><th>RCTC Version</th><th>Ordered Date</th></tr></thead><tbody><tr id=\"id_b52bee94-c34b-4e2c-8c15-5ad9d6def205_ref\"><td>Zika virus envelope (E) gene [Presence] in Serum<br />by Probe and target amplification method</td><td>80825-3</td><td>LOINC</td><td>2.16.840.1.114222.4.11.7508</td><td>19/05/2018</td><td>NOV 8, 2018</td></tr></tbody></table></div>"
            },
            "code": {
              "coding": [
                {
                  "code": "18776-5",
                  "system": "http://loinc.org",
                  "display": "Plan of care note"
                }
              ]
            },
            "mode": "snapshot",
            "entry": [
              {
                "reference": "CarePlan/a044ea1c-bc92-315e-ea2c-17045b409d21"
              }
            ]
          },
          {
            "id": "02caa449-169a-7ffa-27b4-c34ba9077529",
            "title": "Encounters",
            "text": {
              "status": "generated",
              "div": "<div xmlns=\"http://www.w3.org/1999/xhtml\"><table><thead><tr><th>Encounter</th><th>Date(s)</th><th>Location</th></tr></thead><tbody><tr id=\"id_2a620155-9d11-439e-92b3-5d9815ff4de8_ref\"><td>Office outpatient visit 15 minutes</td><td>NOV 7, 2018</td><td><ul><li><p>Urgent Care Center</p></li></ul></td></tr><tr><td><ul><li><table><thead><tr><th>Encounter Diagnosis Type</th></tr></thead><tbody><tr><td>Diagnosis</td></tr><tr><td><ul><li><table><thead><tr><th>Initial Case Report Trigger<br />Code Problem Observation </th><th>Problem</th><th>Trigger Code</th><th>Trigger Code codeSystem</th><th>RCTC OID</th><th>RCTC Version</th><th>Date(s)</th></tr></thead><tbody><tr id=\"id_db734647-fc99-424c-a864-7e3cda82e705_ref\"><td>Diagnosis</td><td>Pertussis (disorder)</td><td>27836007</td><td>SNOMED CT</td><td>2.16.840.1.114222.4.11.7508</td><td>19/05/2018</td><td>NOV 7, 2018</td></tr></tbody></table><table><thead><tr><th>Encounter Diagnosis Type</th></tr></thead><tbody><tr><td>Diagnosis</td></tr><tr><td><ul><li><table><thead><tr><th>Problem Type</th><th>Problem</th><th>Date(s)</th></tr></thead><tbody><tr id=\"id_db734647-fc99-424c-a864-7e3cda82e704_ref\"><td>Diagnosis</td><td>A non-trigger code diagnosis (disorder)</td><td>NOV 7, 2018</td></tr></tbody></table></li></ul></td></tr></tbody></table></li></ul></td></tr></tbody></table></li></ul></td></tr></tbody></table></div>"
            },
            "code": {
              "coding": [
                {
                  "code": "46240-8",
                  "system": "http://loinc.org",
                  "display": "History of Hospitalizations+Outpatient visits Narrative"
                }
              ]
            },
            "mode": "snapshot"
          },
          {
            "id": "2a3897fa-568f-619f-9d8d-fe882324f6c9",
            "title": "History of Present Illness",
            "text": {
              "status": "generated",
              "div": "<div xmlns=\"http://www.w3.org/1999/xhtml\"><p> Persistent Cough REPORTED starting on 2018/10/05<br /> Whooping Respiration not reported<br /> Paroxysms Of Coughing REPORTED starting on 2018/11/04<br /> Post-tussive vomiting not reported<br /></p></div>"
            },
            "code": {
              "coding": [
                {
                  "code": "10164-2",
                  "system": "http://loinc.org",
                  "display": "History of Present illness Narrative"
                }
              ]
            },
            "mode": "snapshot"
          },
          {
            "id": "76bb1808-7320-bcf7-224b-b4f59c1718b4",
            "title": "Medications Administered",
            "text": {
              "status": "generated",
              "div": "<div xmlns=\"http://www.w3.org/1999/xhtml\"><table><thead><tr><th>Medication</th><th>Dose</th><th>Duration</th><th>Route</th></tr></thead><tbody><tr id=\"id_6c844c75-aa34-411c-b7bd-5e4a9f206e29_ref\"><td>Azithromycin 500 MG Oral Tablet</td><td>1 g</td><td>NOV 7, 2018 11:60</td><td>ORAL</td></tr></tbody></table></div>"
            },
            "code": {
              "coding": [
                {
                  "code": "29549-3",
                  "system": "http://loinc.org",
                  "display": "Medication administered Narrative"
                }
              ]
            },
            "mode": "snapshot",
            "entry": [
              {
                "reference": "MedicationAdministration/228dccf8-2944-5076-1c73-a55057a2c857"
              }
            ]
          },
          {
            "id": "f844fe6b-b840-2d4b-fcfc-e90566f5c8e0",
            "title": "Problems",
            "text": {
              "status": "generated",
              "div": "<div xmlns=\"http://www.w3.org/1999/xhtml\"><table><thead><tr><th>Concern</th><th>Concern Status</th><th>Date(s)</th></tr></thead><tbody><tr id=\"id_ec8a6ff8-ed4b-4f7e-82c3-e98e58b45de7_ref\"><td>Problem</td><td>active</td><td>NOV 7, 2018</td></tr><tr><td><ul><li><table><thead><tr><th>Problem Type</th><th>Problem</th><th>Date(s)</th></tr></thead><tbody><tr id=\"id_ab1791b0-5c71-11db-b0de-0800200c9a66_ref\"><td>Symptom</td><td>Dark stools (finding)</td><td>NOV 1, 2018</td></tr><tr id=\"id_ab1791b0-5c71-11db-b0de-0800200c9a67_ref\"><td>Complaint</td><td>Paroxysmal cough (finding)</td><td>NOV 4, 2018</td></tr></tbody></table></li></ul></td></tr></tbody></table><table><thead><tr><th>Concern</th><th>Concern Status</th><th>Date(s)</th></tr></thead><tbody><tr id=\"id_ec8a6ff8-ed4b-4f7e-82c3-e98e58b45de8_ref\"><td>Problem</td><td>active</td><td>MAY 23, 2018</td></tr></tbody></table></div>"
            },
            "code": {
              "coding": [
                {
                  "code": "11450-4",
                  "system": "http://loinc.org",
                  "display": "Problem list - Reported"
                }
              ]
            },
            "mode": "snapshot",
            "entry": [
              {
                "display": "Problem - Dark stools (finding)",
                "reference": "Condition/028492eb-66b8-658a-b1e9-9ecad7530ceb"
              },
              {
                "display": "Problem - Paroxysmal cough (finding)",
                "reference": "Condition/bf6251d6-2a69-ab5d-d0f5-f91779b7cfe0"
              },
              {
                "display": "Problem - Dark stools (finding)",
                "reference": "Condition/028492eb-66b8-658a-b1e9-9ecad7530ceb"
              },
              {
                "display": "Problem - Paroxysmal cough (finding)",
                "reference": "Condition/bf6251d6-2a69-ab5d-d0f5-f91779b7cfe0"
              }
            ]
          },
          {
            "id": "adf7766f-9c63-b14f-b5e0-4993cf76fc93",
            "title": "Reason for Visit",
            "text": {
              "status": "generated",
              "div": "<div xmlns=\"http://www.w3.org/1999/xhtml\"><p>Dark stools</p></div>"
            },
            "code": {
              "coding": [
                {
                  "code": "29299-5",
                  "system": "http://loinc.org",
                  "display": "Reason for visit Narrative"
                }
              ]
            },
            "mode": "snapshot"
          },
          {
            "id": "ce5d5d03-de86-43c6-d369-b4bb8d1bd552",
            "title": "Results",
            "text": {
              "status": "generated",
              "div": "<div xmlns=\"http://www.w3.org/1999/xhtml\"><table><thead><tr><th>Results Panel</th><th>Date(s)</th></tr></thead><tbody><tr id=\"id_7d5a02b0-67a4-11db-bd13-0800200c9a66_ref\"><td>CBC W Auto Differential panel in Blood</td><td>NOV 7, 2018 to NOV 7, 2018</td></tr><tr><td><ul><li><table><thead><tr><th>Test</th><th>Outcome</th><th>Interpretation</th><th>Date(s)</th><th>Reference Range</th><th>Reference Range Interpretation</th><th>Reference Range Description</th></tr></thead><tbody><tr id=\"id_7c0704bb-9c40-41b5-9c7d-26b2d59e234f_ref\"><td>Hematocrit</td><td>35.3 %</td><td>Low</td><td>NOV 7, 2018</td><td>34.9 % to 44.5 %</td><td>Low</td><td>Low</td></tr><tr id=\"id_7c0704bb-9c40-41b5-9c7d-26b2d59e234g_ref\"><td>Lymphocytes [#/​volume] in Blood by Automated count</td><td>5.2 10*3/uL</td><td>High</td><td>NOV 7, 2018</td><td>1.0 10*3/uL to 4.8 10*3/uL</td><td>Normal</td><td /></tr></tbody></table></li></ul></td></tr></tbody></table><table><thead><tr><th>Results Panel</th><th>Date(s)</th></tr></thead><tbody><tr id=\"id_a4307cb2-b3b4-4f42-be03-1d9077376f4a_ref\"><td>Bordetella pertussis Ab<br />[Units/volume] in Serum</td><td>NOV 7, 2018 to NOV 7, 2018</td></tr><tr><td><ul><li><table><thead><tr><th>Initial Case Report Trigger<br />Code Result Observation </th><th>Trigger Code</th><th>Trigger Code codeSystem</th><th>RCTC OID</th><th>RCTC Version</th><th>Outcome</th><th>Interpretation</th><th>Date(s)</th><th>Reference Range</th><th>Reference Range Interpretation</th></tr></thead><tbody><tr id=\"id_bf9c0a26-4524-4395-b3ce-100450b9c9ad_ref\"><td>Bordetella pertussis Ab<br />[Units/volume] in Serum</td><td>11585-7</td><td>LOINC</td><td>2.16.840.1.114222.4.11.7508</td><td>19/05/2018</td><td>100 [iU]/mL</td><td>High</td><td>NOV 7, 2018</td><td> to 45 [iU]/mL</td><td>Normal</td></tr></tbody></table></li></ul></td></tr></tbody></table><table><thead><tr><th>Results Panel</th><th>Date(s)</th></tr></thead><tbody><tr id=\"id_a4307cb2-b3b4-4f42-be03-1d9077376f4b_ref\"><td>Bordetella pertussis [Presence]<br />in Throat by Organism specific culture</td><td>NOV 7, 2018 to NOV 7, 2018</td></tr><tr><td><ul><li><table><thead><tr><th>Initial Case Report Trigger Code Result Observation </th><th>Trigger Code</th><th>Trigger Code codeSystem</th><th>RCTC OID</th><th>RCTC Version</th><th>Outcome</th><th>Trigger Code</th><th>Trigger Code codeSystem</th><th>RCTC OID</th><th>RCTC Version</th><th>Interpretation</th><th>Date(s)</th></tr></thead><tbody><tr id=\"id_bf9c0a26-4524-4395-b3ce-100450b9c9ac_ref\"><td>Bordetella pertussis [Presence]<br />in Throat by Organism specific culture</td><td>548-8</td><td>LOINC</td><td>2.16.840.1.114222.4.11.7508</td><td>19/05/2018</td><td>Bordetella pertussis (organism)</td><td>5247005</td><td>SNOMED CT</td><td>2.16.840.1.114222.4.11.7508</td><td>19/05/2018</td><td>Abnormal</td><td>NOV 7, 2018</td></tr></tbody></table></li></ul></td></tr></tbody></table></div>"
            },
            "code": {
              "coding": [
                {
                  "code": "30954-2",
                  "system": "http://loinc.org",
                  "display": "Relevant diagnostic tests/laboratory data note"
                }
              ]
            },
            "mode": "snapshot",
            "entry": [
              {
                "reference": "Observation/542cf409-a330-2185-6cfc-7f7f20d593c8"
              },
              {
                "reference": "Observation/cc73b36f-1c89-b0fc-84b4-4b98cca74647"
              },
              {
                "reference": "Observation/d5a75751-35da-5ce1-936d-42a4b765febb"
              },
              {
                "reference": "Observation/6235785d-3468-42dc-8c76-d4c70d67f2e9"
              },
              {
                "reference": "Observation/145a35c6-8d22-9a2c-a1f9-2962a6586b3e",
                "display": "Bordetella pertussis [Presence] in Throat by Organism specific culture"
              }
            ]
          },
          {
            "id": "2733cb31-bd64-b50b-8400-9a74bc54cd81",
            "title": "Immunizations",
            "text": {
              "status": "generated",
              "div": "<div xmlns=\"http://www.w3.org/1999/xhtml\"><table><thead><tr><th>Immunization</th><th>Immunization Date</th></tr></thead><tbody><tr><td>diphtheria, tetanus toxoids and acellular<br />pertussis vaccine, 5 pertussis antigens</td><td>NOV 11, 2018</td></tr></tbody></table><table><thead><tr><th>Initial Case Report Trigger Code<br />Immunization Medication Activity</th><th>Immunization Date</th><th>Trigger<br />Code</th><th>Trigger Code<br />codeSystem</th><th>RCTC OID</th><th>RCTC<br />Version</th></tr></thead><tbody><tr><td>influenza virus vaccine, unspecified formulation</td><td>NOV 11, 2018</td><td>88</td><td>CVX</td><td>2.16.840.1.114222.4.11.7508</td><td>19/05/2018</td></tr></tbody></table></div>"
            },
            "code": {
              "coding": [
                {
                  "code": "11369-6",
                  "system": "http://loinc.org",
                  "display": "History of Immunization note"
                }
              ]
            },
            "mode": "snapshot",
            "entry": [
              {
                "reference": "Immunization/007787d7-b7e4-26af-fba4-1ce1f439a903"
              },
              {
                "reference": "Immunization/3a0ef01d-9da9-63dc-e03b-bdffa3ee0b1d"
              }
            ]
          },
          {
            "id": "6e687b41-e889-10bf-2bba-a0ea210dedea",
            "title": "Social History",
            "text": {
              "status": "generated",
              "div": "<div xmlns=\"http://www.w3.org/1999/xhtml\"><table><thead><tr><th>Birth Sex</th><th>Value</th><th>Date</th></tr></thead><tbody><tr><td>Sex Assigned At Birth</td><td>Female</td><td>NOV 24, 1974</td></tr></tbody></table><table><thead><tr><th>Gender identity</th><th>Date</th></tr></thead><tbody><tr><td>Female-to-male transsexual (finding)</td><td>JAN 1, 2018</td></tr></tbody></table><table><thead><tr><th>Characteristics of Home Environment</th><th>Date</th></tr></thead><tbody><tr><td>Homeless</td><td>NOV 9, 2018</td></tr></tbody></table><table><thead><tr><th>Current Occupation</th><th>Current Industry</th><th>Current Job Title</th><th>Current Employer</th></tr></thead><tbody><tr><td>Actuaries</td><td>Accounting, tax preparation, bookkeeping, and payroll services</td><td>Senior Accountant</td><td>CDC, Peachtree St, Ann Arbor Georgia, 555-1212</td></tr></tbody></table><table><thead><tr><th>Usual Occupation</th><th>Usual Industry</th><th>Occupational Exposure</th></tr></thead><tbody><tr><td>Actuaries</td><td>Accounting, tax preparation, bookkeeping, and payroll services</td><td>Asbestos</td></tr></tbody></table><table><thead><tr><th>Travel History: Date(s)</th><th>Notes</th><th>Location</th></tr></thead><tbody><tr><td>1999 to 2007</td><td>Spent 8 years in the UK during the BSE outbreak</td><td /></tr><tr><td>In the 3 weeks before NOV 9, 2018</td><td /><td><ul><li>Brazil</li></ul></td></tr><tr><td>APR 25, 2018 to APR 30, 2018</td><td /><td><ul><li>Nadi, FJ</li></ul></td></tr><tr><td>MAY 6, 2018 to MAY 15, 2018</td><td /><td><ul><li>Montreal, QC, CA</li></ul></td></tr><tr><td>JUL 13, 2018 to JUL 15, 2018</td><td /><td><ul><li>Sydney, NSW, AU</li></ul></td></tr><tr><td>OCT 22, 2018 to OCT 30, 2018</td><td /><td><ul><li>1170 N Rancho Robles Rd Oracle, AZ8562, US</li></ul></td></tr></tbody></table></div>"
            },
            "code": {
              "coding": [
                {
                  "code": "29762-2",
                  "system": "http://loinc.org",
                  "display": "Social history note"
                }
              ]
            },
            "mode": "snapshot",
            "entry": [
              {
                "reference": "Observation/32076aed-d020-9b44-d756-327a72167578"
              },
              {
                "reference": "Observation/41fb62f4-0827-2a1a-c85e-afc77b2c92d5"
              },
              {
                "reference": "Observation/e419541c-79fc-a50e-6c78-f93b7715fc88"
              },
              {
                "reference": "Observation/d5b5f6ce-cd21-c9a0-5778-e5276364c153"
              },
              {
                "reference": "Observation/e0b83dcd-dced-1a38-d82a-eca78198428b"
              },
              {
                "reference": "Observation/8b536f6b-b441-948d-764c-517fa4869ddd"
              },
              {
                "reference": "Observation/8a65af49-3816-ab97-1179-3ebe9c728122"
              },
              {
                "reference": "Observation/6770d2f8-c964-aac6-b8c2-df22bba56b7a"
              },
              {
                "reference": "Observation/033923b6-9c24-956e-21c2-b8e2478bc446"
              }
            ]
          },
          {
            "id": "d1997c52-8056-2189-4c64-a771b78f9cdd",
            "title": "Pregnancy Section",
            "text": {
              "status": "generated",
              "div": "<div xmlns=\"http://www.w3.org/1999/xhtml\"><table><thead><tr><th>Pregnancy Status</th><th>Date(s) over which status holds<br />(if no high date, status was<br />current at time of recording)</th><th>Determination Method</th><th>Determination Date</th><th>Recorded Date</th></tr></thead><tbody><tr><td>Pregnant</td><td>AUG 26, 2017</td><td>Diagnostic ultrasonography</td><td>OCT 1, 2017</td><td>OCT 1, 2017 10:35</td></tr><tr><td><ul><li><table><thead><tr><th>Estimated Date of Delivery</th><th>EDD</th><th>EDD Determination Date</th></tr></thead><tbody><tr><td>Delivery date estimated from ovulation date</td><td>MAY 22, 2017</td><td>OCT 1, 2017 10:15</td></tr></tbody></table><table><thead><tr><th>Estimated Gestational Age of Pregnancy</th><th>Days</th><th>Determination Date</th></tr></thead><tbody><tr><td>Gestational age Estimated from selected delivery date</td><td>143 d</td><td>OCT 1, 2017 10:15</td></tr><tr><td><ul><li><table><thead><tr><th>Reference to selected delivery date</th></tr></thead><tbody><tr><td><a>Link to referenced entry</a></td></tr></tbody></table></li></ul></td></tr></tbody></table><table><thead><tr><th>Pregnancy Outcome</th><th>Birth Order</th><th>Time</th><th>Method of Delivery</th></tr></thead><tbody><tr><td>Stillbirth (finding)</td><td>1</td><td>JAN 5, 2018 08:50</td><td>Breech delivery (procedure)</td></tr><tr><td>Term birth of newborn (finding)</td><td>2</td><td>JAN 5, 2018 10:05</td><td>Breech delivery (procedure)</td></tr></tbody></table></li></ul></td></tr></tbody></table><table><thead><tr><th>Last menstrual period start date</th><th>Observation Date</th></tr></thead><tbody><tr><td>AUG 1, 2017</td><td>JAN 5, 2018 10:15</td></tr></tbody></table><table><thead><tr><th>Postpartum Status</th><th>Observation date</th></tr></thead><tbody><tr><td>Mid postpartum state (finding)</td><td>JAN 5, 2018 10:15</td></tr></tbody></table></div>"
            },
            "code": {
              "coding": [
                {
                  "code": "90767-5",
                  "system": "http://loinc.org",
                  "display": "Pregnancy summary Document"
                }
              ]
            },
            "mode": "snapshot",
            "entry": [
              {
                "reference": "Observation/971025bd-d2cd-6731-e9f1-7d51fbeea207"
              },
              {
                "reference": "Observation/971025bd-d2cd-6731-e9f1-7d51fbeea207"
              },
              {
                "reference": "Observation/e918b73b-aad0-4797-3ee3-ff8b96d3a054"
              },
              {
                "reference": "Observation/4e7f8ad6-3b2a-91e0-0d2a-42f0b0d5719d"
              }
            ]
          },
          {
            "id": "0c16048d-9f83-72a6-5aff-19a82f987078",
            "title": "Vital Signs (Last Filed)",
            "text": {
              "status": "generated",
              "div": "<div xmlns=\"http://www.w3.org/1999/xhtml\"><table><thead><tr><th>Date</th><th>Blood Pressure</th><th>Pulse</th><th>Temperature</th><th>Respiratory Rate</th><th>Height</th><th>Weight</th><th>BMI</th><th>SpO2</th></tr></thead><tbody><tr><td>05/20/2014 7:36pm</td><!-- You can consolidate Systolic and Diastolic in human view if desired but should retain separate references--><td><p id=\"SystolicBP_2\">120</p>/<p id=\"DiastolicBP_2\">80</p>mm[Hg] </td><td id=\"Pulse_2\">80 /min</td><td id=\"Temp_2\">99.0 F</td><td id=\"RespRate_2\">18 /min</td><td id=\"Height_2\">5'7 (67 inches)</td><td id=\"Weight_2\">239.9 lbs</td><td id=\"BMI_2\">37.58 kg/m2</td><td id=\"SPO2_2\">98%</td></tr></tbody></table></div>"
            },
            "code": {
              "coding": [
                {
                  "code": "8716-3",
                  "system": "http://loinc.org",
                  "display": "Vital signs note"
                }
              ]
            },
            "mode": "snapshot"
          },
          {
            "code": {
              "coding": [
                {
                  "system": "http://loinc.org",
                  "code": "10154-3",
                  "display": "Chief complaint Narrative - Reported"
                }
              ]
            },
            "text": {
              "status": "empty",
              "div": "<div xmlns=\"http://www.w3.org/1999/xhtml\">No Information Available</div>"
            }
          }
        ],
        "subject": {
          "reference": "Patient/f238f1ae-2f55-cd21-5c90-5e68a10af8ce"
        },
        "relatesTo": [
          {
            "code": "replaces",
            "targetReference": {
              "reference": "Composition/2.16.840.1.113883.9.9.9.9.9"
            },
            "extension": [
              {
                "url": "http://hl7.org/fhir/StructureDefinition/composition-clinicaldocument-versionNumber",
                "valueString": "1"
              }
            ]
          }
        ],
        "encounter": {
          "reference": "Encounter/34d545a6-353f-2bf4-70b7-e318292979a5"
        },
        "custodian": {
          "reference": "Organization/6f0890ee-d9a6-c51d-ac83-79cfda623a82"
        },
        "author": [
          {
            "reference": "Device/d0ae0527-f36b-de1d-e26b-1560599be6d5"
          }
        ]
      }
    },
    {
      "fullUrl": "urn:uuid:34d545a6-353f-2bf4-70b7-e318292979a5",
      "resource": {
        "resourceType": "Encounter",
        "id": "34d545a6-353f-2bf4-70b7-e318292979a5",
        "status": "in-progress",
        "class": {
          "code": "AMB",
          "system": "http://terminology.hl7.org/CodeSystem/v3-ActCode",
          "display": "Ambulatory"
        },
        "identifier": [
          {
            "system": "urn:oid:2.16.840.1.113883.19",
            "value": "9937012"
          }
        ],
        "period": {
          "start": "2018-11-07"
        },
        "subject": {
          "reference": "Patient/f238f1ae-2f55-cd21-5c90-5e68a10af8ce"
        },
        "location": [
          {
            "id": "2.16.840.1.113883.4.6",
            "location": {
              "reference": "Location/f3c7c7be-67cd-fae5-9f4f-449aca57a474",
              "display": "Good Health Hospital"
            }
          }
        ],
        "serviceProvider": {
          "reference": "Organization/e69fcefd-731c-5e6a-b917-301e9c22a1c7"
        },
        "participant": [
          {
            "type": [
              {
                "coding": [
                  {
                    "system": "http://terminology.hl7.org/CodeSystem/v3-ParticipationType",
                    "code": "ATND"
                  }
                ]
              }
            ],
            "individual": {
              "reference": "PractitionerRole/046a5b3b-8710-4f12-5c82-b481b9250030"
            }
          }
        ]
      }
    },
    {
      "fullUrl": "urn:uuid:f3c7c7be-67cd-fae5-9f4f-449aca57a474",
      "resource": {
        "resourceType": "Location",
        "meta": {
          "profile": [
            "http://hl7.org/fhir/us/ecr/StructureDefinition/us-ph-location"
          ]
        },
        "id": "f3c7c7be-67cd-fae5-9f4f-449aca57a474",
        "identifier": [
          {
            "system": "http://hl7.org/fhir/sid/us-npi",
            "value": "77777777777"
          }
        ],
        "name": "Good Health Hospital",
        "address": {
          "line": [
            "1000 Hospital Lane"
          ],
          "city": "Ann Arbor",
          "state": "MI",
          "country": "US",
          "postalCode": "99999"
        },
        "telecom": [
          {
            "system": "phone",
            "value": "1+(555)-555-1212",
            "use": "work"
          },
          {
            "system": "fax",
            "value": "1+(555)-555-3333",
            "use": "work"
          }
        ],
        "type": [
          {
            "coding": [
              {
                "code": "OF",
                "system": "urn:oid:2.16.840.1.113883.5.111",
                "display": "Outpatient facility"
              }
            ]
          }
        ]
      }
    },
    {
      "fullUrl": "urn:uuid:e69fcefd-731c-5e6a-b917-301e9c22a1c7",
      "resource": {
        "resourceType": "Organization",
        "id": "e69fcefd-731c-5e6a-b917-301e9c22a1c7",
        "name": "Good Health Hospital",
        "address": [
          {
            "line": [
              "1000 Hospital Lane"
            ],
            "city": "Ann Arbor",
            "state": "MI",
            "country": "US",
            "postalCode": "99999"
          }
        ],
        "telecom": [
          {
            "system": "phone",
            "value": "1+(555)-555-1212",
            "use": "work"
          },
          {
            "system": "fax",
            "value": "1+(555)-555-3333",
            "use": "work"
          }
        ]
      }
    },
    {
      "fullUrl": "urn:uuid:b1788a7c-7165-936d-d3de-3a1713e2d54d",
      "resource": {
        "resourceType": "Practitioner",
        "id": "b1788a7c-7165-936d-d3de-3a1713e2d54d",
        "meta": {
          "profile": [
            "http://hl7.org/fhir/us/core/StructureDefinition/us-core-practitioner"
          ]
        },
        "extension": [
          {
            "url": "http://hl7.org/fhir/StructureDefinition/_datatype",
            "valueString": "Responsible Party"
          }
        ],
        "identifier": [
          {
            "system": "http://hl7.org/fhir/sid/us-npi",
            "value": "6666666666666"
          }
        ],
        "name": [
          {
            "family": "Seven",
            "given": [
              "Henry"
            ],
            "suffix": [
              "M.D."
            ]
          }
        ],
        "address": [
          {
            "line": [
              "1002 Healthcare Drive"
            ],
            "city": "Ann Arbor",
            "state": "MI",
            "country": "US",
            "postalCode": "99999"
          }
        ],
        "telecom": [
          {
            "system": "phone",
            "value": "+1(555)555-1003",
            "use": "work"
          },
          {
            "system": "fax",
            "value": "+1(555)555-1234",
            "use": "work"
          },
          {
            "system": "email",
            "value": "mail@provider_domain.com",
            "use": "work"
          }
        ]
      }
    },
    {
      "resource": {
        "resourceType": "PractitionerRole",
        "id": "046a5b3b-8710-4f12-5c82-b481b9250030",
        "practitioner": {
          "reference": "Practitioner/b1788a7c-7165-936d-d3de-3a1713e2d54d"
        },
        "organization": {
          "reference": "Organization/8305a99c-dd44-f037-9a4a-b22ef7ae7d5e"
        }
      }
    },
    {
      "fullUrl": "urn:uuid:8305a99c-dd44-f037-9a4a-b22ef7ae7d5e",
      "resource": {
        "resourceType": "Organization",
        "id": "8305a99c-dd44-f037-9a4a-b22ef7ae7d5e",
        "name": "Community Health and Hospitals",
        "address": [
          {
            "line": [
              "1002 Healthcare Drive"
            ],
            "city": "Ann Arbor",
            "state": "MI",
            "country": "US",
            "postalCode": "99999"
          }
        ]
      }
    },
    {
      "fullUrl": "urn:uuid:6f0890ee-d9a6-c51d-ac83-79cfda623a82",
      "resource": {
        "resourceType": "Organization",
        "id": "6f0890ee-d9a6-c51d-ac83-79cfda623a82",
        "identifier": [
          {
            "system": "http://hl7.org/fhir/sid/us-npi",
            "value": "88888888"
          }
        ],
        "name": "Good Health Hospital",
        "address": [
          {
            "line": [
              "1000 Hospital Lane"
            ],
            "city": "Ann Arbor",
            "state": "MI",
            "country": "US",
            "postalCode": "99999"
          }
        ],
        "telecom": [
          {
            "system": "phone",
            "value": "+1(555)555-1212",
            "use": "work"
          }
        ]
      }
    },
    {
      "fullUrl": "urn:uuid:d0ae0527-f36b-de1d-e26b-1560599be6d5",
      "resource": {
        "resourceType": "Device",
        "id": "d0ae0527-f36b-de1d-e26b-1560599be6d5",
        "identifier": [
          {
            "system": "urn:ietf:rfc:3986",
            "value": "urn:oid:2.16.840.1.113883.3.72.5.20"
          }
        ],
        "property": [
          {
            "type": {
              "coding": [
                {
                  "system": "http://hl7.org/fhir/device-category",
                  "code": "software",
                  "display": "software"
                }
              ]
            }
          }
        ]
      }
    },
    {
      "fullUrl": "urn:uuid:f238f1ae-2f55-cd21-5c90-5e68a10af8ce",
      "resource": {
        "resourceType": "Patient",
        "id": "f238f1ae-2f55-cd21-5c90-5e68a10af8ce",
        "meta": {
          "profile": [
            "http://hl7.org/fhir/us/core/StructureDefinition/us-core-patient"
          ]
        },
        "identifier": [
          {
            "system": "urn:oid:2.16.840.1.113883.19.5",
            "value": "123453"
          },
          {
            "system": "http://hl7.org/fhir/sid/us-ssn",
            "value": "444-22-2222"
          }
        ],
        "name": [
          {
            "use": "official",
            "family": "Everywoman",
            "given": [
              "Eve",
              "H"
            ]
          },
          {
            "use": "usual",
            "family": "Everywoman",
            "given": [
              "Ruth",
              "L"
            ]
          }
        ],
        "birthDate": "1974-11-24",
        "deceasedBoolean": false,
        "gender": "female",
        "extension": [
          {
            "url": "http://hl7.org/fhir/us/core/StructureDefinition/us-core-race",
            "extension": [
              {
                "url": "ombCategory",
                "valueCoding": {
                  "code": "2106-3",
                  "system": "urn:oid:2.16.840.1.113883.6.238",
                  "display": "White"
                }
              },
              {
                "url": "text",
                "valueString": "White"
              }
            ]
          },
          {
            "url": "http://hl7.org/fhir/us/core/StructureDefinition/us-core-ethnicity",
            "extension": [
              {
                "url": "ombCategory",
                "valueCoding": {
                  "system": "urn:oid:2.16.840.1.113883.6.238",
                  "code": "2186-5",
                  "display": "Non Hispanic or Latino"
                }
              },
              {
                "url": "text",
                "valueString": "Not Hispanic or Latino"
              }
            ]
          },
          {
            "url": "http://hl7.org/fhir/us/ecr/StructureDefinition/us-ph-genderidentity-extension",
            "extension": [
              {
                "url": "value",
                "valueCodeableConcept": {
                  "coding": [
                    {
                      "code": "407377005",
                      "system": "http://snomed.info/sct",
                      "display": "Female-to-male transsexual"
                    }
                  ]
                }
              }
            ]
          },
          {
            "url": "http://hl7.org/fhir/us/core/StructureDefinition/us-core-birthsex",
            "valueCode": "F"
          }
        ],
        "address": [
          {
            "use": "home",
            "line": [
              "2222 Home Street"
            ],
            "city": "Ann Arbor",
            "state": "MI",
            "country": "US",
            "postalCode": "99999",
            "district": "26001"
          }
        ],
        "telecom": [
          {
            "system": "phone",
            "value": "+1-555-555-2003",
            "use": "home"
          },
          {
            "system": "phone",
            "value": "+1-555-555-2004",
            "use": "work"
          }
        ],
        "communication": [
          {
            "language": {
              "coding": [
                {
                  "system": "urn:ietf:bcp:47",
                  "code": "en",
                  "display": "English"
                }
              ]
            },
            "preferred": true,
            "extension": [
              {
                "url": "http://hl7.org/fhir/StructureDefinition/patient-proficiency",
                "extension": [
                  {
                    "url": "type",
                    "valueCoding": {
                      "system": "http://terminology.hl7.org/CodeSystem/v3-LanguageAbilityMode",
                      "code": "ESP",
                      "display": "Expressed spoken"
                    }
                  },
                  {
                    "url": "level",
                    "valueCoding": {
                      "system": "http://terminology.hl7.org/CodeSystem/v3-LanguageAbilityProficiency",
                      "code": "G",
                      "display": "Good"
                    }
                  }
                ]
              }
            ]
          }
        ]
      }
    },
    {
      "fullUrl": "urn:uuid:228dccf8-2944-5076-1c73-a55057a2c857",
      "resource": {
        "resourceType": "MedicationAdministration",
        "id": "228dccf8-2944-5076-1c73-a55057a2c857",
        "identifier": [
          {
            "system": "urn:ietf:rfc:3986",
            "value": "urn:uuid:6c844c75-aa34-411c-b7bd-5e4a9f206e29"
          }
        ],
        "status": "completed",
        "effectiveDateTime": "2018-11-07T12:00:00-07:00",
        "dosage": {
          "route": {
            "coding": [
              {
                "code": "C38288",
                "system": "urn:oid:2.16.840.1.113883.3.26.1.1",
                "display": "ORAL"
              }
            ]
          }
        },
        "extension": [
          {
            "url": "http://hl7.org/fhir/us/ecr/StructureDefinition/us-ph-therapeutic-medication-response-extension",
            "valueCodeableConcept": {
              "coding": [
                {
                  "code": "268910001",
                  "system": "http://snomed.info/sct",
                  "display": "Patient's condition improved"
                }
              ]
            }
          }
        ],
        "subject": {
          "reference": "Patient/f238f1ae-2f55-cd21-5c90-5e68a10af8ce"
        },
        "medicationReference": {
          "reference": "Medication/da82c76b-25ec-2365-8e57-4e7ec4f8f174"
        }
      }
    },
    {
      "fullUrl": "urn:uuid:da82c76b-25ec-2365-8e57-4e7ec4f8f174",
      "resource": {
        "resourceType": "Medication",
        "id": "da82c76b-25ec-2365-8e57-4e7ec4f8f174",
        "code": {
          "coding": [
            {
              "code": "248656",
              "system": "http://www.nlm.nih.gov/research/umls/rxnorm",
              "display": "azithromycin 500 MG Oral Tablet"
            }
          ]
        }
      }
    },
    {
      "fullUrl": "urn:uuid:1761fbfc-0dc8-4dc1-97af-f4c09eeed219",
      "resource": {
        "resourceType": "RelatedPerson",
        "id": "1761fbfc-0dc8-4dc1-97af-f4c09eeed219",
        "relationship": [
          {
            "coding": [
              {
                "system": "http://terminology.hl7.org/CodeSystem/v3-RoleCode",
                "code": "GUARD",
                "display": "Guardian"
              }
            ]
          }
        ],
        "name": [
          {
            "use": "official",
            "family": "Mum",
            "given": [
              "Martha",
              "L"
            ]
          }
        ],
        "telecom": [
          {
            "system": "phone",
            "value": "+1-555-555-2006",
            "use": "home"
          },
          {
            "system": "email",
            "value": "mail@guardian.com"
          }
        ],
        "address": [
          {
            "use": "home",
            "line": [
              "4444 Home Street"
            ],
            "city": "Ann Arbor",
            "state": "MI",
            "country": "US",
            "postalCode": "99999"
          }
        ],
        "patient": {
          "reference": "Patient/f238f1ae-2f55-cd21-5c90-5e68a10af8ce"
        }
      }
    },
    {
      "fullUrl": "urn:uuid:971025bd-d2cd-6731-e9f1-7d51fbeea207",
      "resource": {
        "resourceType": "Observation",
        "id": "971025bd-d2cd-6731-e9f1-7d51fbeea207",
        "meta": {
          "profile": [
            "http://hl7.org/fhir/us/ecr/StructureDefinition/us-ph-pregnancy-status-observation"
          ]
        },
        "identifier": [
          {
            "system": "urn:ietf:rfc:3986",
            "value": "urn:uuid:bab77407-f76d-4a51-a2ed-980c8a59fe28"
          }
        ],
        "category": [
          {
            "coding": [
              {
                "system": "http://terminology.hl7.org/CodeSystem/observation-category",
                "code": "exam"
              }
            ]
          }
        ],
        "status": "final",
        "code": {
          "coding": [
            {
              "system": "http://loinc.org",
              "code": "82810-3",
              "display": "Pregnancy status"
            }
          ]
        },
        "effectivePeriod": {
          "start": "2017-08-26"
        },
        "valueCodeableConcept": {
          "coding": [
            {
              "code": "77386006",
              "system": "http://snomed.info/sct",
              "display": "Pregnancy"
            }
          ]
        },
        "method": {
          "coding": [
            {
              "code": "16310003",
              "system": "http://snomed.info/sct",
              "display": "Ultrasonography"
            }
          ]
        },
        "component": [
          {
            "extension": [
              {
                "url": "http://hl7.org/fhir/us/ecr/StructureDefinition/us-ph-date-determined-extension",
                "valueDateTime": "2017-10-01T10:15:00"
              }
            ],
            "code": {
              "coding": [
                {
                  "code": "11780-4",
                  "system": "http://loinc.org",
                  "display": "Delivery date Estimated from ovulation date"
                }
              ]
            },
            "valueDateTime": "2017-05-22"
          },
          {
            "extension": [
              {
                "url": "http://hl7.org/fhir/us/ecr/StructureDefinition/us-ph-date-determined-extension",
                "valueDateTime": "2017-10-01T10:15:00"
              }
            ],
            "code": {
              "coding": [
                {
                  "code": "11887-7",
                  "system": "http://loinc.org",
                  "display": "Gestational age Estimated from selected delivery date"
                }
              ]
            },
            "valueQuantity": {
              "value": 143,
              "unit": "d"
            }
          }
        ],
        "extension": [
          {
            "url": "http://hl7.org/fhir/us/ecr/StructureDefinition/us-ph-date-recorded-extension",
            "valueDateTime": "2017-10-01T10:35:00"
          },
          {
            "url": "http://hl7.org/fhir/us/ecr/StructureDefinition/us-ph-date-determined-extension",
            "valueDateTime": "2017-10-01"
          }
        ],
        "subject": {
          "reference": "Patient/f238f1ae-2f55-cd21-5c90-5e68a10af8ce"
        }
      }
    },
    {
      "fullUrl": "urn:uuid:c806bc5b-20bf-181a-f6b1-49d52983e243",
      "resource": {
        "resourceType": "Observation",
        "id": "c806bc5b-20bf-181a-f6b1-49d52983e243",
        "meta": {
          "profile": [
            "http://hl7.org/fhir/us/ecr/StructureDefinition/us-ph-pregnancy-outcome-observation"
          ]
        },
        "identifier": [
          {
            "system": "urn:ietf:rfc:3986",
            "value": "urn:uuid:6df3e951-e6f8-441d-a298-d9d6d3f405db"
          }
        ],
        "category": [
          {
            "coding": [
              {
                "system": "http://terminology.hl7.org/CodeSystem/observation-category",
                "code": "exam"
              }
            ]
          }
        ],
        "status": "final",
        "code": {
          "coding": [
            {
              "system": "http://loinc.org",
              "code": "63893-2",
              "display": "Outcome of pregnancy"
            }
          ]
        },
        "effectiveDateTime": "2018-01-05T08:50:00",
        "valueCodeableConcept": {
          "coding": [
            {
              "code": "237364002",
              "system": "http://snomed.info/sct",
              "display": "Stillbirth"
            }
          ]
        },
        "component": [
          {
            "code": {
              "coding": [
                {
                  "system": "http://loinc.org",
                  "code": "73771-8",
                  "display": "Birth order"
                }
              ]
            },
            "valueInteger": 1
          }
        ],
        "subject": {
          "reference": "Patient/f238f1ae-2f55-cd21-5c90-5e68a10af8ce"
        },
        "focus": [
          {
            "reference": "Observation/971025bd-d2cd-6731-e9f1-7d51fbeea207"
          }
        ]
      }
    },
    {
      "fullUrl": "urn:uuid:e918b73b-aad0-4797-3ee3-ff8b96d3a054",
      "resource": {
        "resourceType": "Observation",
        "id": "e918b73b-aad0-4797-3ee3-ff8b96d3a054",
        "meta": {
          "profile": [
            "http://hl7.org/fhir/us/vr-common-library/StructureDefinition/Observation-last-menstrual-period"
          ]
        },
        "identifier": [
          {
            "system": "urn:ietf:rfc:3986",
            "value": "urn:uuid:5ffea0ae-9ae5-4313-956a-30219b4a6afa"
          }
        ],
        "category": [
          {
            "coding": [
              {
                "system": "http://terminology.hl7.org/CodeSystem/observation-category",
                "code": "exam"
              }
            ]
          }
        ],
        "status": "final",
        "code": {
          "coding": [
            {
              "system": "http://loinc.org",
              "code": "8665-2",
              "display": "Last menstrual period start date"
            }
          ]
        },
        "effectiveDateTime": "2018-01-05T10:15:00",
        "valueDateTime": "2017-08-01",
        "subject": {
          "reference": "Patient/f238f1ae-2f55-cd21-5c90-5e68a10af8ce"
        }
      }
    },
    {
      "fullUrl": "urn:uuid:4e7f8ad6-3b2a-91e0-0d2a-42f0b0d5719d",
      "resource": {
        "resourceType": "Observation",
        "id": "4e7f8ad6-3b2a-91e0-0d2a-42f0b0d5719d",
        "meta": {
          "profile": [
            "http://hl7.org/fhir/us/ecr/StructureDefinition/us-ph-postpartum-status"
          ]
        },
        "identifier": [
          {
            "system": "urn:ietf:rfc:3986",
            "value": "urn:uuid:9701b264-0f70-47f9-bfbf-aa4f9686cd3a"
          }
        ],
        "category": [
          {
            "coding": [
              {
                "system": "http://terminology.hl7.org/CodeSystem/observation-category",
                "code": "exam"
              }
            ]
          }
        ],
        "status": "final",
        "code": {
          "coding": [
            {
              "system": "http://snomed.info/sct",
              "code": "249197004",
              "display": "Maternal condition during puerperium (observable entity)"
            }
          ]
        },
        "effectiveDateTime": "2018-01-05T10:15:00",
        "valueCodeableConcept": {
          "coding": [
            {
              "code": "42814007",
              "system": "http://snomed.info/sct",
              "display": "Mid postpartum state"
            }
          ]
        },
        "subject": {
          "reference": "Patient/f238f1ae-2f55-cd21-5c90-5e68a10af8ce"
        }
      }
    },
    {
      "fullUrl": "urn:uuid:4822d9b6-e625-6b52-5e57-b83fa8c5d5af",
      "resource": {
        "resourceType": "DiagnosticReport",
        "id": "4822d9b6-e625-6b52-5e57-b83fa8c5d5af",
        "identifier": [
          {
            "system": "urn:ietf:rfc:3986",
            "value": "urn:uuid:7d5a02b0-67a4-11db-bd13-0800200c9a66"
          }
        ],
        "status": "final",
        "code": {
          "coding": [
            {
              "code": "57021-8",
              "system": "http://loinc.org",
              "display": "CBC W Auto Differential panel (Bld)"
            }
          ]
        },
        "effectivePeriod": {
          "start": "2018-11-07",
          "end": "2018-11-07"
        },
        "extension": [
          {
            "url": "http://terminology.hl7.org/CodeSystem/v2-0123",
            "valueCodeableConcept": {
              "coding": [
                {
                  "code": "F",
                  "system": "urn:oid:2.16.840.1.113883.18.51",
                  "display": "Final results; results stored and verified. Can only be changed with a corrected result."
                }
              ]
            }
          }
        ],
        "subject": {
          "reference": "Patient/f238f1ae-2f55-cd21-5c90-5e68a10af8ce"
        },
        "specimen": [
          {
            "reference": "Specimen/e9912a9e-f5c5-5324-64f5-09fb48c6f743"
          }
        ],
        "result": [
          {
            "reference": "Observation/542cf409-a330-2185-6cfc-7f7f20d593c8"
          },
          {
            "reference": "Observation/cc73b36f-1c89-b0fc-84b4-4b98cca74647"
          }
        ]
      }
    },
    {
      "fullUrl": "urn:uuid:e9912a9e-f5c5-5324-64f5-09fb48c6f743",
      "resource": {
        "resourceType": "Specimen",
        "id": "e9912a9e-f5c5-5324-64f5-09fb48c6f743",
        "identifier": [
          {
            "system": "urn:ietf:rfc:3986",
            "value": "urn:uuid:44fd0410-6115-4b8e-8ee9-a51b3817df66"
          }
        ],
        "type": {
          "coding": [
            {
              "code": "119297000",
              "system": "http://snomed.info/sct",
              "display": "Blood specimen"
            }
          ]
        },
        "collection": {
          "collectedPeriod": {
            "start": "2018-03-09"
          },
          "bodySite": {
            "coding": [
              {
                "code": "368208006",
                "system": "http://snomed.info/sct",
                "display": "Left upper arm structure"
              }
            ]
          }
        },
        "subject": {
          "reference": "Patient/f238f1ae-2f55-cd21-5c90-5e68a10af8ce"
        }
      }
    },
    {
      "fullUrl": "urn:uuid:542cf409-a330-2185-6cfc-7f7f20d593c8",
      "resource": {
        "resourceType": "Observation",
        "id": "542cf409-a330-2185-6cfc-7f7f20d593c8",
        "meta": {
          "profile": [
            "http://hl7.org/fhir/us/ecr/StructureDefinition/us-ph-lab-result-observation"
          ]
        },
        "identifier": [
          {
            "system": "urn:ietf:rfc:3986",
            "value": "urn:uuid:7c0704bb-9c40-41b5-9c7d-26b2d59e234f"
          }
        ],
        "category": [
          {
            "coding": [
              {
                "system": "http://terminology.hl7.org/CodeSystem/observation-category",
                "code": "laboratory"
              }
            ]
          }
        ],
        "status": "final",
        "code": {
          "coding": [
            {
              "code": "20570-8",
              "system": "http://loinc.org",
              "display": "Hematocrit Calc (Bld) [Volume fraction]"
            }
          ]
        },
        "effectiveDateTime": "2018-11-07",
        "valueQuantity": {
          "value": 35.3,
          "unit": "%"
        },
        "referenceRange": [
          {
            "text": "34.9 % - 44.5 %",
            "low": {
              "value": 34.9,
              "unit": "%"
            },
            "high": {
              "value": 44.5,
              "unit": "%"
            },
            "type": {
              "coding": [
                {
                  "code": "L",
                  "system": "http://terminology.hl7.org/CodeSystem/v3-ObservationInterpretation",
                  "display": "Low"
                }
              ]
            }
          }
        ],
        "interpretation": [
          {
            "coding": [
              {
                "code": "L",
                "system": "http://terminology.hl7.org/CodeSystem/v3-ObservationInterpretation",
                "display": "Low"
              }
            ]
          }
        ],
        "subject": {
          "reference": "Patient/f238f1ae-2f55-cd21-5c90-5e68a10af8ce"
        }
      }
    },
    {
      "fullUrl": "urn:uuid:cc73b36f-1c89-b0fc-84b4-4b98cca74647",
      "resource": {
        "resourceType": "Observation",
        "id": "cc73b36f-1c89-b0fc-84b4-4b98cca74647",
        "meta": {
          "profile": [
            "http://hl7.org/fhir/us/ecr/StructureDefinition/us-ph-lab-result-observation"
          ]
        },
        "identifier": [
          {
            "value": "7c0704bb-9c40-41b5-9c7d-26b2d59e234g"
          }
        ],
        "category": [
          {
            "coding": [
              {
                "system": "http://terminology.hl7.org/CodeSystem/observation-category",
                "code": "laboratory"
              }
            ]
          }
        ],
        "status": "final",
        "code": {
          "coding": [
            {
              "code": "731-0",
              "system": "http://loinc.org",
              "display": "Lymphocytes Auto (Bld) [#/Vol]"
            }
          ]
        },
        "effectiveDateTime": "2018-11-07",
        "valueQuantity": {
          "value": 5.2,
          "unit": "10*3/uL"
        },
        "referenceRange": [
          {
            "text": "1.0 10*3/uL - 4.8 10*3/uL",
            "low": {
              "value": 1.0,
              "unit": "10*3/uL"
            },
            "high": {
              "value": 4.8,
              "unit": "10*3/uL"
            },
            "type": {
              "coding": [
                {
                  "code": "N",
                  "system": "http://terminology.hl7.org/CodeSystem/v3-ObservationInterpretation",
                  "display": "Normal"
                }
              ]
            }
          }
        ],
        "interpretation": [
          {
            "coding": [
              {
                "code": "H",
                "system": "http://terminology.hl7.org/CodeSystem/v3-ObservationInterpretation",
                "display": "High"
              }
            ]
          }
        ],
        "subject": {
          "reference": "Patient/f238f1ae-2f55-cd21-5c90-5e68a10af8ce"
        }
      }
    },
    {
      "fullUrl": "urn:uuid:1ff11a5a-bb04-839b-f590-fb53f3aac6cf",
      "resource": {
        "resourceType": "DiagnosticReport",
        "id": "1ff11a5a-bb04-839b-f590-fb53f3aac6cf",
        "identifier": [
          {
            "system": "urn:ietf:rfc:3986",
            "value": "urn:uuid:a4307cb2-b3b4-4f42-be03-1d9077376f4a"
          }
        ],
        "status": "final",
        "code": {
          "coding": [
            {
              "code": "11585-7",
              "system": "http://loinc.org",
              "display": "B. pertussis Ab Qn (S)"
            }
          ]
        },
        "effectivePeriod": {
          "start": "2018-11-07",
          "end": "2018-11-07"
        },
        "subject": {
          "reference": "Patient/f238f1ae-2f55-cd21-5c90-5e68a10af8ce"
        },
        "result": [
          {
            "reference": "Observation/6235785d-3468-42dc-8c76-d4c70d67f2e9"
          }
        ]
      }
    },
    {
      "fullUrl": "urn:uuid:6235785d-3468-42dc-8c76-d4c70d67f2e9",
      "resource": {
        "resourceType": "Observation",
        "id": "6235785d-3468-42dc-8c76-d4c70d67f2e9",
        "meta": {
          "profile": [
            "http://hl7.org/fhir/us/ecr/StructureDefinition/us-ph-lab-result-observation"
          ]
        },
        "identifier": [
          {
            "system": "urn:ietf:rfc:3986",
            "value": "urn:uuid:bf9c0a26-4524-4395-b3ce-100450b9c9ad"
          }
        ],
        "category": [
          {
            "coding": [
              {
                "system": "http://terminology.hl7.org/CodeSystem/observation-category",
                "code": "laboratory"
              }
            ]
          }
        ],
        "status": "final",
        "code": {
          "coding": [
            {
              "code": "11585-7",
              "system": "http://loinc.org",
              "display": "B. pertussis Ab Qn (S)"
            }
          ]
        },
        "effectiveDateTime": "2018-11-07",
        "valueQuantity": {
          "value": 100,
          "unit": "[iU]/mL"
        },
        "referenceRange": [
          {
            "high": {
              "value": 45,
              "unit": "[iU]/mL"
            },
            "type": {
              "coding": [
                {
                  "code": "N",
                  "system": "http://terminology.hl7.org/CodeSystem/v3-ObservationInterpretation",
                  "display": "Normal"
                }
              ]
            }
          }
        ],
        "interpretation": [
          {
            "coding": [
              {
                "code": "H",
                "system": "http://terminology.hl7.org/CodeSystem/v3-ObservationInterpretation",
                "display": "High"
              }
            ]
          }
        ],
        "extension": [
          {
            "url": "http://terminology.hl7.org/ValueSet/v2-0085",
            "valueCodeableConcept": {
              "coding": [
                {
                  "code": "F",
                  "system": "urn:oid:2.16.840.1.113883.18.34",
                  "display": "Final results"
                }
              ]
            }
          }
        ],
        "subject": {
          "reference": "Patient/f238f1ae-2f55-cd21-5c90-5e68a10af8ce"
        }
      }
    },
    {
      "fullUrl": "urn:uuid:fdd7fe34-d9fc-3ab8-87c0-a754a19175c7",
      "resource": {
        "resourceType": "DiagnosticReport",
        "id": "fdd7fe34-d9fc-3ab8-87c0-a754a19175c7",
        "identifier": [
          {
            "system": "urn:ietf:rfc:3986",
            "value": "urn:uuid:a4307cb2-b3b4-4f42-be03-1d9077376f4b"
          }
        ],
        "status": "preliminary",
        "code": {
          "coding": [
            {
              "code": "548-8",
              "system": "http://loinc.org",
              "display": "B. pertussis Org specific cx Ql (Throat)"
            }
          ]
        },
        "effectivePeriod": {
          "start": "2018-11-07",
          "end": "2018-11-07"
        },
        "subject": {
          "reference": "Patient/f238f1ae-2f55-cd21-5c90-5e68a10af8ce"
        },
        "result": [
          {
            "reference": "Observation/145a35c6-8d22-9a2c-a1f9-2962a6586b3e"
          }
        ]
      }
    },
    {
      "fullUrl": "urn:uuid:145a35c6-8d22-9a2c-a1f9-2962a6586b3e",
      "resource": {
        "resourceType": "Observation",
        "id": "145a35c6-8d22-9a2c-a1f9-2962a6586b3e",
        "meta": {
          "profile": [
            "http://hl7.org/fhir/us/ecr/StructureDefinition/us-ph-lab-result-observation"
          ]
        },
        "identifier": [
          {
            "system": "urn:ietf:rfc:3986",
            "value": "urn:uuid:bf9c0a26-4524-4395-b3ce-100450b9c9ac"
          }
        ],
        "category": [
          {
            "coding": [
              {
                "system": "http://terminology.hl7.org/CodeSystem/observation-category",
                "code": "laboratory"
              }
            ]
          }
        ],
        "status": "preliminary",
        "code": {
          "coding": [
            {
              "code": "local_code_pertussis",
              "system": "urn:oid:2.16.840.1.113883.1.2.3.665",
              "display": "Bordetella pertussis in Throat by Organism specific culture"
            },
            {
              "code": "548-8",
              "system": "http://loinc.org",
              "display": "B. pertussis Org specific cx Ql (Throat)"
            }
          ]
        },
        "effectiveDateTime": "2018-11-07",
        "valueCodeableConcept": {
          "coding": [
            {
              "code": "5247005",
              "system": "http://snomed.info/sct",
              "display": "Bordetella pertussis"
            }
          ]
        },
        "interpretation": [
          {
            "coding": [
              {
                "code": "A",
                "system": "http://terminology.hl7.org/CodeSystem/v3-ObservationInterpretation",
                "display": "Abnormal"
              }
            ]
          }
        ],
        "extension": [
          {
            "url": "http://terminology.hl7.org/ValueSet/v2-0085",
            "valueCodeableConcept": {
              "coding": [
                {
                  "code": "P",
                  "system": "urn:oid:2.16.840.1.113883.18.34",
                  "display": "Preliminary results"
                }
              ]
            }
          }
        ],
        "subject": {
          "reference": "Patient/f238f1ae-2f55-cd21-5c90-5e68a10af8ce"
        }
      }
    },
    {
      "fullUrl": "urn:uuid:32076aed-d020-9b44-d756-327a72167578",
      "resource": {
        "resourceType": "Observation",
        "id": "32076aed-d020-9b44-d756-327a72167578",
        "meta": {
          "profile": [
            "http://hl7.org/fhir/us/ecr/StructureDefinition/us-ph-characteristics-of-home-environment"
          ]
        },
        "identifier": [
          {
            "system": "urn:ietf:rfc:3986",
            "value": "urn:uuid:37f76c51-6411-4e1d-8a37-957fd49d2ced"
          }
        ],
        "category": [
          {
            "coding": [
              {
                "system": "http://terminology.hl7.org/CodeSystem/observation-category",
                "code": "social-history"
              }
            ]
          }
        ],
        "status": "final",
        "code": {
          "coding": [
            {
              "code": "75274-1",
              "system": "http://loinc.org",
              "display": "Characteristics of residence"
            }
          ]
        },
        "effectiveDateTime": "2018-11-09",
        "valueCodeableConcept": {
          "coding": [
            {
              "code": "32911000",
              "system": "http://snomed.info/sct",
              "display": "Homeless"
            }
          ]
        },
        "subject": {
          "reference": "Patient/f238f1ae-2f55-cd21-5c90-5e68a10af8ce"
        }
      }
    },
    {
      "fullUrl": "urn:uuid:41fb62f4-0827-2a1a-c85e-afc77b2c92d5",
      "resource": {
        "resourceType": "Observation",
        "id": "41fb62f4-0827-2a1a-c85e-afc77b2c92d5",
        "meta": {
          "profile": [
            "http://hl7.org/fhir/us/ecr/StructureDefinition/us-ph-travel-history"
          ]
        },
        "code": {
          "coding": [
            {
              "system": "http://snomed.info/sct",
              "code": "420008001",
              "display": "Travel"
            }
          ],
          "text": "Travel History"
        },
        "status": "final",
        "effectivePeriod": {
          "start": "1999",
          "end": "2007"
        },
        "component": [
          {
            "code": {
              "coding": [
                {
                  "system": "http://terminology.hl7.org/CodeSystem/v3-ParticipationType",
                  "code": "LOC",
                  "display": "Location"
                }
              ]
            },
            "valueCodeableConcept": {
              "text": "Spent 8 years in the UK during the BSE outbreak"
            }
          }
        ],
        "subject": {
          "reference": "Patient/f238f1ae-2f55-cd21-5c90-5e68a10af8ce"
        }
      }
    },
    {
      "fullUrl": "urn:uuid:e419541c-79fc-a50e-6c78-f93b7715fc88",
      "resource": {
        "resourceType": "Observation",
        "id": "e419541c-79fc-a50e-6c78-f93b7715fc88",
        "meta": {
          "profile": [
            "http://hl7.org/fhir/us/ecr/StructureDefinition/us-ph-travel-history"
          ]
        },
        "code": {
          "coding": [
            {
              "system": "http://snomed.info/sct",
              "code": "420008001",
              "display": "Travel"
            }
          ],
          "text": "Travel History"
        },
        "status": "final",
        "effectivePeriod": {
          "start": "2018-10-19",
          "end": "2018-11-09"
        },
        "component": [
          {
            "code": {
              "coding": [
                {
                  "system": "http://terminology.hl7.org/CodeSystem/v3-ParticipationType",
                  "code": "LOC",
                  "display": "Location"
                }
              ]
            },
            "valueCodeableConcept": {
              "coding": [
                {
                  "code": "BRA",
                  "system": "urn:oid:1.0.3166.1",
                  "display": "Brazil"
                }
              ]
            }
          }
        ],
        "subject": {
          "reference": "Patient/f238f1ae-2f55-cd21-5c90-5e68a10af8ce"
        }
      }
    },
    {
      "fullUrl": "urn:uuid:d5b5f6ce-cd21-c9a0-5778-e5276364c153",
      "resource": {
        "resourceType": "Observation",
        "id": "d5b5f6ce-cd21-c9a0-5778-e5276364c153",
        "meta": {
          "profile": [
            "http://hl7.org/fhir/us/ecr/StructureDefinition/us-ph-travel-history"
          ]
        },
        "code": {
          "coding": [
            {
              "system": "http://snomed.info/sct",
              "code": "420008001",
              "display": "Travel"
            }
          ],
          "text": "Travel History"
        },
        "status": "final",
        "effectivePeriod": {
          "start": "2018-04-25",
          "end": "2018-04-30"
        },
        "component": [
          {
            "code": {
              "coding": [
                {
                  "system": "http://terminology.hl7.org/CodeSystem/v3-ParticipationType",
                  "code": "LOC",
                  "display": "Location"
                }
              ]
            },
            "extension": [
              {
                "url": "http://hl7.org/fhir/us/ecr/StructureDefinition/us-ph-address-extension",
                "valueAddress": {
                  "city": "Nadi",
                  "country": "FJ"
                }
              }
            ]
          }
        ],
        "subject": {
          "reference": "Patient/f238f1ae-2f55-cd21-5c90-5e68a10af8ce"
        }
      }
    },
    {
      "fullUrl": "urn:uuid:e0b83dcd-dced-1a38-d82a-eca78198428b",
      "resource": {
        "resourceType": "Observation",
        "id": "e0b83dcd-dced-1a38-d82a-eca78198428b",
        "meta": {
          "profile": [
            "http://hl7.org/fhir/us/ecr/StructureDefinition/us-ph-travel-history"
          ]
        },
        "code": {
          "coding": [
            {
              "system": "http://snomed.info/sct",
              "code": "420008001",
              "display": "Travel"
            }
          ],
          "text": "Travel History"
        },
        "status": "final",
        "effectivePeriod": {
          "start": "2018-05-06",
          "end": "2018-05-15"
        },
        "component": [
          {
            "code": {
              "coding": [
                {
                  "system": "http://terminology.hl7.org/CodeSystem/v3-ParticipationType",
                  "code": "LOC",
                  "display": "Location"
                }
              ]
            },
            "extension": [
              {
                "url": "http://hl7.org/fhir/us/ecr/StructureDefinition/us-ph-address-extension",
                "valueAddress": {
                  "city": "Montreal",
                  "state": "QC",
                  "country": "CA"
                }
              }
            ]
          }
        ],
        "subject": {
          "reference": "Patient/f238f1ae-2f55-cd21-5c90-5e68a10af8ce"
        }
      }
    },
    {
      "fullUrl": "urn:uuid:8b536f6b-b441-948d-764c-517fa4869ddd",
      "resource": {
        "resourceType": "Observation",
        "id": "8b536f6b-b441-948d-764c-517fa4869ddd",
        "meta": {
          "profile": [
            "http://hl7.org/fhir/us/ecr/StructureDefinition/us-ph-travel-history"
          ]
        },
        "code": {
          "coding": [
            {
              "system": "http://snomed.info/sct",
              "code": "420008001",
              "display": "Travel"
            }
          ],
          "text": "Travel History"
        },
        "status": "final",
        "effectivePeriod": {
          "start": "2018-07-13",
          "end": "2018-07-15"
        },
        "component": [
          {
            "code": {
              "coding": [
                {
                  "system": "http://terminology.hl7.org/CodeSystem/v3-ParticipationType",
                  "code": "LOC",
                  "display": "Location"
                }
              ]
            },
            "extension": [
              {
                "url": "http://hl7.org/fhir/us/ecr/StructureDefinition/us-ph-address-extension",
                "valueAddress": {
                  "city": "Sydney",
                  "state": "NSW",
                  "country": "AU"
                }
              }
            ]
          }
        ],
        "subject": {
          "reference": "Patient/f238f1ae-2f55-cd21-5c90-5e68a10af8ce"
        }
      }
    },
    {
      "fullUrl": "urn:uuid:8a65af49-3816-ab97-1179-3ebe9c728122",
      "resource": {
        "resourceType": "Observation",
        "id": "8a65af49-3816-ab97-1179-3ebe9c728122",
        "meta": {
          "profile": [
            "http://hl7.org/fhir/us/ecr/StructureDefinition/us-ph-travel-history"
          ]
        },
        "code": {
          "coding": [
            {
              "system": "http://snomed.info/sct",
              "code": "420008001",
              "display": "Travel"
            }
          ],
          "text": "Travel History"
        },
        "status": "final",
        "effectivePeriod": {
          "start": "2018-10-22",
          "end": "2018-10-30"
        },
        "component": [
          {
            "code": {
              "coding": [
                {
                  "system": "http://terminology.hl7.org/CodeSystem/v3-ParticipationType",
                  "code": "LOC",
                  "display": "Location"
                }
              ]
            },
            "extension": [
              {
                "url": "http://hl7.org/fhir/us/ecr/StructureDefinition/us-ph-address-extension",
                "valueAddress": {
                  "line": [
                    "1170 N Rancho Robles Rd"
                  ],
                  "city": "Oracle",
                  "state": "AZ",
                  "country": "US",
                  "postalCode": "8562"
                }
              }
            ]
          }
        ],
        "subject": {
          "reference": "Patient/f238f1ae-2f55-cd21-5c90-5e68a10af8ce"
        }
      }
    },
    {
      "fullUrl": "urn:uuid:6770d2f8-c964-aac6-b8c2-df22bba56b7a",
      "resource": {
        "resourceType": "Observation",
        "id": "6770d2f8-c964-aac6-b8c2-df22bba56b7a",
        "meta": {
          "profile": [
            "http://hl7.org/fhir/us/odh/StructureDefinition/odh-UsualWork"
          ]
        },
        "identifier": [
          {
            "system": "urn:ietf:rfc:3986",
            "value": "urn:uuid:4f4b3876-8570-41a0-b995-cf34f37c5cbf"
          }
        ],
        "category": [
          {
            "coding": [
              {
                "system": "http://terminology.hl7.org/CodeSystem/observation-category",
                "code": "social-history"
              }
            ]
          }
        ],
        "status": "final",
        "code": {
          "coding": [
            {
              "code": "21843-8",
              "system": "http://loinc.org",
              "display": "History of Usual occupation"
            }
          ]
        },
        "effectivePeriod": {
          "start": "1996-11-24"
        },
        "valueCodeableConcept": {
          "coding": [
            {
              "code": "1200",
              "system": "urn:oid:2.16.840.1.114222.4.5.314",
              "display": "Actuaries"
            }
          ]
        },
        "component": [
          {
            "code": {
              "coding": [
                {
                  "code": "21844-6",
                  "system": "http://loinc.org",
                  "display": "History of Usual industry"
                }
              ]
            },
            "valueCodeableConcept": {
              "coding": [
                {
                  "code": "7280",
                  "system": "urn:oid:2.16.840.1.114222.4.5.315",
                  "display": "Accounting, tax preparation, bookkeeping, and payroll services"
                }
              ]
            }
          }
        ],
        "subject": {
          "reference": "Patient/f238f1ae-2f55-cd21-5c90-5e68a10af8ce"
        }
      }
    },
    {
      "fullUrl": "urn:uuid:f8a425b4-e7da-6c88-64ed-07d776377c11",
      "resource": {
        "resourceType": "Organization",
        "id": "f8a425b4-e7da-6c88-64ed-07d776377c11",
        "identifier": [
          {
            "system": "urn:uuid:58822180-ab0d-42e4-90c6-35336bf55654",
            "value": "12345"
          }
        ],
        "name": "CDC",
        "address": [
          {
            "line": [
              "Peachtree St"
            ],
            "city": "Ann Arbor",
            "state": "Georgia"
          }
        ],
        "telecom": [
          {
            "value": "555-1212",
            "use": "work"
          }
        ]
      }
    },
    {
      "resource": {
        "resourceType": "Observation",
        "id": "033923b6-9c24-956e-21c2-b8e2478bc446",
        "extension": [
          {
            "url": "http://hl7.org/fhir/us/odh/StructureDefinition/odh-Employer-extension",
            "valueReference": {
              "reference": "Organization/f8a425b4-e7da-6c88-64ed-07d776377c11"
            }
          }
        ],
        "meta": {
          "profile": [
            "http://hl7.org/fhir/us/odh/StructureDefinition/odh-PastOrPresentJob"
          ]
        },
        "identifier": [
          {
            "system": "urn:ietf:rfc:3986",
            "value": "urn:uuid:1728123a-7b6c-418c-adc2-f78417caf62c"
          }
        ],
        "category": [
          {
            "coding": [
              {
                "system": "http://terminology.hl7.org/CodeSystem/observation-category",
                "code": "social-history"
              }
            ]
          }
        ],
        "status": "unknown",
        "code": {
          "coding": [
            {
              "code": "11341-5",
              "system": "http://loinc.org",
              "display": "History of Occupation"
            }
          ]
        },
        "effectivePeriod": {
          "start": "2015-04-24"
        },
        "valueCodeableConcept": {
          "coding": [
            {
              "code": "1200",
              "system": "urn:oid:2.16.840.1.114222.4.5.314",
              "display": "Actuaries"
            }
          ]
        },
        "component": [
          {
            "code": {
              "coding": [
                {
                  "code": "87729-0",
                  "system": "http://loinc.org",
                  "display": "History of Occupational hazard"
                }
              ]
            },
            "valueString": "Asbestos"
          },
          {
            "code": {
              "coding": [
                {
                  "code": "86188-0",
                  "system": "http://loinc.org",
                  "display": "History of Occupation industry"
                }
              ]
            },
            "valueCodeableConcept": {
              "coding": [
                {
                  "code": "7280",
                  "system": "urn:oid:2.16.840.1.114222.4.5.315",
                  "display": "Accounting, tax preparation, bookkeeping, and payroll services"
                }
              ]
            }
          }
        ],
        "subject": {
          "reference": "Patient/f238f1ae-2f55-cd21-5c90-5e68a10af8ce"
        }
      },
      "fullUrl": "urn:uuid:033923b6-9c24-956e-21c2-b8e2478bc446"
    },
    {
      "fullUrl": "urn:uuid:c244724c-beed-f974-c994-e46d93e07278",
      "resource": {
        "resourceType": "Observation",
        "id": "c244724c-beed-f974-c994-e46d93e07278",
        "meta": {
          "profile": [
            "http://hl7.org/fhir/StructureDefinition/Observation"
          ]
        },
        "identifier": [
          {
            "system": "urn:ietf:rfc:3986",
            "value": "urn:uuid:2721acc5-0d05-4402-9e62-79943ea3901c"
          }
        ],
        "category": [
          {
            "coding": [
              {
                "system": "http://terminology.hl7.org/CodeSystem/observation-category",
                "code": "vital-signs"
              }
            ]
          }
        ],
        "status": "final",
        "code": {
          "coding": [
            {
              "code": "8480-6",
              "system": "http://loinc.org",
              "display": "Systolic blood pressure"
            }
          ]
        },
        "effectiveDateTime": "2014-05-20T19:36:05-05:00",
        "valueQuantity": {
          "value": 120,
          "unit": "mm[Hg]"
        },
        "subject": {
          "reference": "Patient/f238f1ae-2f55-cd21-5c90-5e68a10af8ce"
        }
      }
    },
    {
      "fullUrl": "urn:uuid:5db034ca-32e2-029f-73c1-a94b0872fc83",
      "resource": {
        "resourceType": "Observation",
        "id": "5db034ca-32e2-029f-73c1-a94b0872fc83",
        "meta": {
          "profile": [
            "http://hl7.org/fhir/StructureDefinition/Observation"
          ]
        },
        "identifier": [
          {
            "system": "urn:ietf:rfc:3986",
            "value": "urn:uuid:88a01c83-a096-4705-a992-b5f59eca8c8c"
          }
        ],
        "category": [
          {
            "coding": [
              {
                "system": "http://terminology.hl7.org/CodeSystem/observation-category",
                "code": "vital-signs"
              }
            ]
          }
        ],
        "status": "final",
        "code": {
          "coding": [
            {
              "code": "8462-4",
              "system": "http://loinc.org",
              "display": "Diastolic blood pressure"
            }
          ]
        },
        "effectiveDateTime": "2014-05-20T19:36:05-05:00",
        "valueQuantity": {
          "value": 80,
          "unit": "mm[Hg]"
        },
        "subject": {
          "reference": "Patient/f238f1ae-2f55-cd21-5c90-5e68a10af8ce"
        }
      }
    },
    {
      "fullUrl": "urn:uuid:f4b5fd8b-649c-db2e-c664-2fbd9722efeb",
      "resource": {
        "resourceType": "Observation",
        "id": "f4b5fd8b-649c-db2e-c664-2fbd9722efeb",
        "meta": {
          "profile": [
            "http://hl7.org/fhir/StructureDefinition/Observation"
          ]
        },
        "identifier": [
          {
            "system": "urn:ietf:rfc:3986",
            "value": "urn:uuid:83bbffe1-54e5-4984-a32d-ad8f8d6896d8"
          }
        ],
        "category": [
          {
            "coding": [
              {
                "system": "http://terminology.hl7.org/CodeSystem/observation-category",
                "code": "vital-signs"
              }
            ]
          }
        ],
        "status": "final",
        "code": {
          "coding": [
            {
              "code": "8867-4",
              "system": "http://loinc.org",
              "display": "Heart rate"
            }
          ]
        },
        "effectiveDateTime": "2014-05-20T19:36:05-05:00",
        "valueQuantity": {
          "value": 80,
          "unit": "/min"
        },
        "subject": {
          "reference": "Patient/f238f1ae-2f55-cd21-5c90-5e68a10af8ce"
        }
      }
    },
    {
      "fullUrl": "urn:uuid:be20c352-2684-3a06-4bbf-968823d8de88",
      "resource": {
        "resourceType": "Observation",
        "id": "be20c352-2684-3a06-4bbf-968823d8de88",
        "meta": {
          "profile": [
            "http://hl7.org/fhir/StructureDefinition/Observation"
          ]
        },
        "identifier": [
          {
            "system": "urn:ietf:rfc:3986",
            "value": "urn:uuid:85f5784f-2958-4321-b7b6-3030d1577dc0"
          }
        ],
        "category": [
          {
            "coding": [
              {
                "system": "http://terminology.hl7.org/CodeSystem/observation-category",
                "code": "vital-signs"
              }
            ]
          }
        ],
        "status": "final",
        "code": {
          "coding": [
            {
              "code": "8310-5",
              "system": "http://loinc.org",
              "display": "Body temperature"
            }
          ]
        },
        "effectiveDateTime": "2014-05-20T19:36:05-05:00",
        "valueQuantity": {
          "value": 99.0,
          "unit": "[degF]"
        },
        "subject": {
          "reference": "Patient/f238f1ae-2f55-cd21-5c90-5e68a10af8ce"
        }
      }
    },
    {
      "fullUrl": "urn:uuid:df388e78-64e8-9498-566f-0aeac823b001",
      "resource": {
        "resourceType": "Observation",
        "id": "df388e78-64e8-9498-566f-0aeac823b001",
        "meta": {
          "profile": [
            "http://hl7.org/fhir/StructureDefinition/Observation"
          ]
        },
        "identifier": [
          {
            "system": "urn:ietf:rfc:3986",
            "value": "urn:uuid:b618fa98-6596-4e19-a9e7-6bdb48012fc8"
          }
        ],
        "category": [
          {
            "coding": [
              {
                "system": "http://terminology.hl7.org/CodeSystem/observation-category",
                "code": "vital-signs"
              }
            ]
          }
        ],
        "status": "final",
        "code": {
          "coding": [
            {
              "code": "9279-1",
              "system": "http://loinc.org",
              "display": "Respiratory rate"
            }
          ]
        },
        "effectiveDateTime": "2014-05-20T19:36:05-05:00",
        "valueQuantity": {
          "value": 18,
          "unit": "/min"
        },
        "subject": {
          "reference": "Patient/f238f1ae-2f55-cd21-5c90-5e68a10af8ce"
        }
      }
    },
    {
      "fullUrl": "urn:uuid:1adf8eee-6eb3-4007-7c1c-07632b447bbb",
      "resource": {
        "resourceType": "Observation",
        "id": "1adf8eee-6eb3-4007-7c1c-07632b447bbb",
        "meta": {
          "profile": [
            "http://hl7.org/fhir/StructureDefinition/Observation"
          ]
        },
        "identifier": [
          {
            "system": "urn:ietf:rfc:3986",
            "value": "urn:uuid:1b1274a9-b45f-449a-8493-08eaeaeba7d6"
          }
        ],
        "category": [
          {
            "coding": [
              {
                "system": "http://terminology.hl7.org/CodeSystem/observation-category",
                "code": "vital-signs"
              }
            ]
          }
        ],
        "status": "final",
        "code": {
          "coding": [
            {
              "code": "8302-2",
              "system": "http://loinc.org",
              "display": "Body height"
            }
          ]
        },
        "effectiveDateTime": "2014-05-20T19:36:05-05:00",
        "valueQuantity": {
          "value": 67,
          "unit": "[in_us]"
        },
        "subject": {
          "reference": "Patient/f238f1ae-2f55-cd21-5c90-5e68a10af8ce"
        }
      }
    },
    {
      "fullUrl": "urn:uuid:a2517e7e-ddb2-adc7-893a-787eb92fba05",
      "resource": {
        "resourceType": "Observation",
        "id": "a2517e7e-ddb2-adc7-893a-787eb92fba05",
        "meta": {
          "profile": [
            "http://hl7.org/fhir/StructureDefinition/Observation"
          ]
        },
        "identifier": [
          {
            "system": "urn:ietf:rfc:3986",
            "value": "urn:uuid:1c1f89f1-8e93-4a46-b37f-9434f99727b8"
          }
        ],
        "category": [
          {
            "coding": [
              {
                "system": "http://terminology.hl7.org/CodeSystem/observation-category",
                "code": "vital-signs"
              }
            ]
          }
        ],
        "status": "final",
        "code": {
          "coding": [
            {
              "code": "3141-9",
              "system": "http://loinc.org",
              "display": "Body weight Measured"
            }
          ]
        },
        "effectiveDateTime": "2014-05-20T19:36:05-05:00",
        "valueQuantity": {
          "value": 239.9,
          "unit": "[lb_av]"
        },
        "subject": {
          "reference": "Patient/f238f1ae-2f55-cd21-5c90-5e68a10af8ce"
        }
      }
    },
    {
      "fullUrl": "urn:uuid:c0d0b627-727b-35da-a8ba-847ea02c5286",
      "resource": {
        "resourceType": "Observation",
        "id": "c0d0b627-727b-35da-a8ba-847ea02c5286",
        "meta": {
          "profile": [
            "http://hl7.org/fhir/StructureDefinition/Observation"
          ]
        },
        "identifier": [
          {
            "system": "urn:ietf:rfc:3986",
            "value": "urn:uuid:fd4ccd0b-c045-4587-8976-a17e2e064a1e"
          }
        ],
        "category": [
          {
            "coding": [
              {
                "system": "http://terminology.hl7.org/CodeSystem/observation-category",
                "code": "vital-signs"
              }
            ]
          }
        ],
        "status": "final",
        "code": {
          "coding": [
            {
              "code": "39156-5",
              "system": "http://loinc.org",
              "display": "Body mass index (BMI) [Ratio]"
            }
          ]
        },
        "effectiveDateTime": "2014-05-20T19:36:05-05:00",
        "valueQuantity": {
          "value": 37.58,
          "unit": "kg/m2"
        },
        "subject": {
          "reference": "Patient/f238f1ae-2f55-cd21-5c90-5e68a10af8ce"
        }
      }
    },
    {
      "fullUrl": "urn:uuid:b2a2d5e7-4b40-65ed-343c-ed6fb4f5286b",
      "resource": {
        "resourceType": "Observation",
        "id": "b2a2d5e7-4b40-65ed-343c-ed6fb4f5286b",
        "meta": {
          "profile": [
            "http://hl7.org/fhir/StructureDefinition/Observation"
          ]
        },
        "identifier": [
          {
            "system": "urn:ietf:rfc:3986",
            "value": "urn:uuid:0ef4afda-1638-4ad2-9978-7321bbceb0cb"
          }
        ],
        "category": [
          {
            "coding": [
              {
                "system": "http://terminology.hl7.org/CodeSystem/observation-category",
                "code": "vital-signs"
              }
            ]
          }
        ],
        "status": "final",
        "code": {
          "coding": [
            {
              "code": "2710-2",
              "system": "http://loinc.org",
              "display": "Deprecated Oxygen saturation in Capillary blood by Oximetry"
            }
          ]
        },
        "effectiveDateTime": "2014-05-20T19:36:05-05:00",
        "valueQuantity": {
          "value": 98,
          "unit": "%"
        },
        "subject": {
          "reference": "Patient/f238f1ae-2f55-cd21-5c90-5e68a10af8ce"
        }
      }
    },
    {
      "fullUrl": "urn:uuid:60f4995b-0f6c-b4e8-c29a-c36542e2b2a8",
      "resource": {
        "resourceType": "Encounter",
        "id": "60f4995b-0f6c-b4e8-c29a-c36542e2b2a8",
        "status": "finished",
        "class": {
          "code": "99213",
          "system": "http://www.ama-assn.org/go/cpt",
          "display": "Office outpatient visit 15 minutes"
        },
        "identifier": [
          {
            "system": "urn:ietf:rfc:3986",
            "value": "urn:uuid:2a620155-9d11-439e-92b3-5d9815ff4de8"
          }
        ],
        "period": {
          "start": "2018-11-07"
        },
        "subject": {
          "reference": "Patient/f238f1ae-2f55-cd21-5c90-5e68a10af8ce"
        },
        "diagnosis": [
          {
            "condition": {
              "reference": "Condition/63cd2d6d-0c98-bfb5-d095-6ce01717a8e8"
            }
          },
          {
            "condition": {
              "reference": "Condition/f1a6114a-a5b8-a264-43d1-e8bd0a205c3b"
            }
          }
        ]
      }
    },
    {
      "fullUrl": "urn:uuid:63cd2d6d-0c98-bfb5-d095-6ce01717a8e8",
      "resource": {
        "resourceType": "Condition",
        "id": "63cd2d6d-0c98-bfb5-d095-6ce01717a8e8",
        "identifier": [
          {
            "system": "urn:ietf:rfc:3986",
            "value": "urn:uuid:db734647-fc99-424c-a864-7e3cda82e705"
          }
        ],
        "category": [
          {
            "coding": [
              {
                "code": "problem-item-list",
                "display": "Problem List Item",
                "system": "http://hl7.org/fhir/us/core/ValueSet/us-core-condition-category"
              }
            ]
          }
        ],
        "code": {
          "coding": [
            {
              "code": "27836007",
              "system": "http://snomed.info/sct",
              "display": "Pertussis"
            }
          ]
        },
        "onsetDateTime": "2018-11-07",
        "subject": {
          "reference": "Patient/f238f1ae-2f55-cd21-5c90-5e68a10af8ce"
        }
      }
    },
    {
      "fullUrl": "urn:uuid:f1a6114a-a5b8-a264-43d1-e8bd0a205c3b",
      "resource": {
        "resourceType": "Condition",
        "id": "f1a6114a-a5b8-a264-43d1-e8bd0a205c3b",
        "identifier": [
          {
            "system": "urn:ietf:rfc:3986",
            "value": "urn:uuid:db734647-fc99-424c-a864-7e3cda82e704"
          }
        ],
        "category": [
          {
            "coding": [
              {
                "code": "problem-item-list",
                "display": "Problem List Item",
                "system": "http://hl7.org/fhir/us/core/ValueSet/us-core-condition-category"
              }
            ]
          }
        ],
        "code": {
          "coding": [
            {
              "code": "282291009",
              "system": "http://snomed.info/sct",
              "display": "Diagnosis interpretation"
            }
          ]
        },
        "onsetDateTime": "2018-11-07",
        "subject": {
          "reference": "Patient/f238f1ae-2f55-cd21-5c90-5e68a10af8ce"
        }
      }
    },
    {
      "fullUrl": "urn:uuid:a044ea1c-bc92-315e-ea2c-17045b409d21",
      "resource": {
        "resourceType": "CarePlan",
        "id": "a044ea1c-bc92-315e-ea2c-17045b409d21",
        "status": "unknown",
        "intent": "proposal",
        "subject": {
          "reference": "Patient/f238f1ae-2f55-cd21-5c90-5e68a10af8ce"
        },
        "activity": [
          {
            "reference": {
              "reference": "ServiceRequest/4c848e74-e9e1-f1fb-051c-c5b52bef3557"
            }
          }
        ]
      }
    },
    {
      "fullUrl": "urn:uuid:4c848e74-e9e1-f1fb-051c-c5b52bef3557",
      "resource": {
        "resourceType": "ServiceRequest",
        "id": "4c848e74-e9e1-f1fb-051c-c5b52bef3557",
        "identifier": [
          {
            "system": "urn:ietf:rfc:3986",
            "value": "urn:uuid:b52bee94-c34b-4e2c-8c15-5ad9d6def205"
          }
        ],
        "status": "active",
        "intent": "plan",
        "code": {
          "coding": [
            {
              "code": "80825-3",
              "system": "http://loinc.org",
              "display": "ZIKV E gene NAA+probe Ql (S)"
            }
          ]
        },
        "occurrenceDateTime": "2018-11-08",
        "subject": {
          "reference": "Patient/f238f1ae-2f55-cd21-5c90-5e68a10af8ce"
        }
      }
    },
    {
      "fullUrl": "urn:uuid:007787d7-b7e4-26af-fba4-1ce1f439a903",
      "resource": {
        "resourceType": "Immunization",
        "id": "007787d7-b7e4-26af-fba4-1ce1f439a903",
        "identifier": [
          {
            "system": "urn:uuid:00000000-5cf3-ec63-0513-4a4838595787",
            "value": "11369-6_3-1_1.3.6.1.4.1.22812.11.2016.163.1_14168"
          }
        ],
        "occurrenceDateTime": "2018-11-07",
        "vaccineCode": {
          "coding": [
            {
              "code": "106",
              "system": "urn:oid:2.16.840.1.113883.12.292",
              "display": "diphtheria, tetanus toxoids and acellular pertussis vaccine, 5 pertussis antigens"
            }
          ]
        },
        "status": "completed",
        "primarySource": true,
        "patient": {
          "reference": "Patient/f238f1ae-2f55-cd21-5c90-5e68a10af8ce"
        }
      }
    },
    {
      "fullUrl": "urn:uuid:3a0ef01d-9da9-63dc-e03b-bdffa3ee0b1d",
      "resource": {
        "resourceType": "Immunization",
        "id": "3a0ef01d-9da9-63dc-e03b-bdffa3ee0b1d",
        "identifier": [
          {
            "system": "urn:uuid:00000000-5cf3-ec63-0513-4a4838595787",
            "value": "11369-6_2-1_1.3.6.1.4.1.22812.11.2016.163.1_14168"
          }
        ],
        "occurrenceDateTime": "2018-11-07",
        "vaccineCode": {
          "coding": [
            {
              "code": "88",
              "system": "urn:oid:2.16.840.1.113883.12.292",
              "display": "influenza virus vaccine, unspecified formulation"
            }
          ]
        },
        "status": "completed",
        "primarySource": true,
        "patient": {
          "reference": "Patient/f238f1ae-2f55-cd21-5c90-5e68a10af8ce"
        }
      }
    }
  ]
}